Subject,Round,Phase,afterbreak,Schema,Schema_RT,Schema_OB,Schema_AS,Cho_1,Cho_2,Cho_3,Cho_4,RT_1,RT_2,RT_3,RT_4,OB_1,OB_2,OB_3,OB_4,AS_1,AS_2,AS_3,AS_4,schema_payoff,AC,performance,payoff,breakR,type,dwellmean_1,dwellmean_2,dwellmean_3,dwellmean_4
1,1,1,1,11,26.59599999999998,17,116,61,71,64,62,27.998999999999977,0.061,4.086999999999997,5.245999999999996,20,1,14,12,122,1,22,24,4,1,48,4,1,L,0.22949999999999998,0.061,0.18577272727272726,0.21858333333333332
1,1,2,1,12,21.898999999999983,16,98,39,47,44,14,23.118999999999982,0.9759999999999995,8.112999999999994,3.4159999999999973,20,4,15,9,103,4,37,15,5,0.5,36,5.25,1,L,0.22445631067961164,0.244,0.21927027027027027,0.22773333333333332
1,2,3,1,11,13.11499999999999,19,75,65,70,63,40,20.373999999999985,2.8669999999999978,0.122,0.244,20,8,1,1,99,9,1,1,4,0.5,29,4.25,1,L,0.20579797979797979,0.3185555555555555,0.122,0.244
1,2,4,1,15,29.706999999999976,20,142,16,21,20,22,31.780999999999974,2.1959999999999984,1.7689999999999988,8.966999999999993,20,4,8,16,150,4,8,47,6,1,72,6,1,L,0.2118733333333333,0.5489999999999998,0.221125,0.19078723404255318
1,3,5,1,12,26.16899999999998,19,117,39,46,43,9,27.693999999999978,4.269999999999997,2.744999999999998,12.32199999999999,20,11,8,16,121,14,9,56,5,0.5,36,5.25,1,L,0.2288760330578512,0.30499999999999994,0.305,0.22003571428571428
1,3,6,1,3,18.116999999999987,20,85,15,75,79,76,90.09700000000086,0.061,0.061,0.061,20,1,1,1,403,1,1,1,5,0.5,24,3.75,1,L,0.22356575682382132,0.061,0.061,0.061
1,4,7,1,7,10.125999999999992,18,50,1,3,12,5,10.735999999999992,0.244,1.0979999999999994,2.1959999999999984,20,3,6,6,54,3,6,6,6,1,72,6,1,L,0.1988148148148148,0.08133333333333333,0.183,0.36599999999999994
1,4,8,1,14,29.340999999999976,15,120,15,62,90,91,70.75999999999995,0.183,0.244,0.061,20,2,2,1,297,2,2,1,3,0,16,4,1,L,0.23824915824915824,0.0915,0.122,0.061
1,5,9,1,12,16.774999999999988,19,85,48,43,38,9,22.020999999999983,2.561999999999998,4.208999999999997,3.3549999999999973,20,7,14,7,102,8,22,9,5,0.5,36,5.25,1,L,0.21589215686274507,0.32024999999999987,0.1913181818181818,0.3727777777777777
1,5,10,1,15,10.796999999999992,20,60,21,14,16,79,11.83399999999999,0.122,7.380999999999994,7.380999999999994,20,1,13,15,68,1,29,28,6,0.5,39,5.25,1,L,0.17402941176470588,0.122,0.2545172413793103,0.2636071428571428
1,6,11,1,13,22.203999999999983,20,103,66,116,119,90,42.76099999999997,2.0739999999999985,0.6709999999999998,0.183,20,5,4,1,186,7,4,1,2,0,11,2.75,1,L,0.22989784946236558,0.2962857142857142,0.16775,0.183
1,6,12,1,2,19.702999999999985,20,92,55,53,81,37,20.983999999999984,2.805999999999998,3.903999999999997,12.68799999999999,20,13,12,17,98,16,21,49,4,0,16,4,1,L,0.21412244897959182,0.175375,0.1859047619047619,0.25893877551020406
1,7,13,1,3,13.907999999999989,20,68,33,25,30,28,14.578999999999988,1.646999999999999,0.366,0.488,20,8,3,2,73,8,3,2,5,1,60,5,1,L,0.19971232876712328,0.205875,0.122,0.244
1,7,14,1,1,12.19999999999999,19,62,77,67,2,41,34.403999999999975,3.9649999999999967,1.524999999999999,0.183,20,11,4,1,154,14,5,1,3,0,18,4.5,1,L,0.22340259740259738,0.28321428571428564,0.305,0.183
1,8,15,1,7,23.362999999999982,20,113,9,2,6,7,27.08399999999998,1.2809999999999993,0.5489999999999999,6.282999999999995,20,4,4,13,130,5,4,28,6,1,72,6,1,L,0.20833846153846153,0.25619999999999993,0.13724999999999998,0.22439285714285712
1,8,16,1,15,27.754999999999978,20,142,20,14,16,13,29.096999999999976,3.598999999999997,6.8319999999999945,1.7689999999999988,20,11,16,8,148,16,28,10,6,1,72,6,1,L,0.19660135135135134,0.22493749999999998,0.24399999999999997,0.1769
1,9,17,1,15,9.576999999999993,18,45,15,16,22,18,26.900999999999982,5.367999999999996,0.9149999999999996,3.842999999999997,20,16,4,11,114,22,4,12,6,1,72,6,1,L,0.23597368421052628,0.24399999999999997,0.22875,0.3202499999999999
1,9,18,1,1,13.11499999999999,14,71,83,78,61,6,13.724999999999989,7.380999999999994,5.7339999999999955,3.537999999999997,18,17,14,13,75,41,25,19,3,0,16,4,1,L,0.183,0.18002439024390243,0.22935999999999998,0.18621052631578947
1,10,19,1,12,25.61999999999998,18,120,43,55,85,116,25.92499999999998,68.62500000000048,3.2939999999999974,3.720999999999997,20,19,8,12,122,251,14,17,5,0,14,3.5,1,L,0.2125,0.273406374501992,0.23528571428571426,0.21888235294117644
1,10,20,1,11,23.362999999999982,20,108,69,10,67,100,25.74199999999998,7.807999999999994,0.061,3.2329999999999974,20,14,1,11,118,31,1,17,4,0,16,4,1,L,0.21815254237288134,0.25187096774193546,0.061,0.19017647058823528
1,11,21,1,7,16.896999999999988,19,81,6,11,10,66,16.957999999999988,3.842999999999997,5.672999999999996,1.9519999999999986,20,12,13,7,82,17,26,8,6,0.5,40,5.5,1,L,0.20680487804878048,0.22605882352941176,0.21819230769230766,0.24399999999999994
1,11,22,1,2,9.576999999999993,18,50,58,57,75,113,13.05399999999999,4.086999999999997,4.513999999999997,7.441999999999994,20,12,15,16,62,16,27,33,4,0,13,3.25,1,L,0.21054838709677418,0.2554375,0.1671851851851852,0.22551515151515147
2,1,1,1,8,15.066999999999988,20,70,105,101,106,63,15.432999999999987,10.003999999999992,4.147999999999997,1.7689999999999988,20,17,12,6,72,48,21,8,2,0.5,16,2.5,1,L,0.21434722222222222,0.20841666666666664,0.19752380952380952,0.22112499999999996
2,1,2,1,15,16.22599999999999,20,78,15,13,17,22,17.872999999999987,1.585999999999999,4.513999999999997,2.0739999999999985,20,8,13,7,82,8,27,9,6,1,72,6,1,L,0.2179634146341463,0.19824999999999998,0.1671851851851852,0.23044444444444442
2,2,3,1,7,8.173999999999994,17,50,2,4,5,9,12.443999999999992,1.3419999999999992,13.05399999999999,1.1589999999999994,20,7,17,8,68,7,52,8,6,1,72,6,1,L,0.183,0.1917142857142857,0.2510384615384615,0.144875
2,2,4,1,13,16.04299999999999,18,76,118,73,120,64,16.774999999999988,17.567999999999987,0.8539999999999996,11.101999999999991,20,17,4,14,81,82,4,41,2,0,11,2.75,1,L,0.20709876543209876,0.21424390243902436,0.2135,0.270780487804878
2,3,5,1,14,35.684999999999974,20,155,94,85,56,38,35.867999999999974,0.9759999999999995,5.550999999999996,4.513999999999997,20,5,14,12,157,6,18,21,3,0,15,3.75,1,L,0.22845859872611463,0.16266666666666665,0.3083888888888889,0.21495238095238092
2,3,6,1,13,28.303999999999977,20,128,72,118,111,120,38.67399999999997,0.6709999999999998,0.183,3.720999999999997,20,3,1,10,177,3,1,14,2,0.5,16,2.5,1,L,0.21849717514124292,0.22366666666666665,0.183,0.26578571428571424
2,4,7,1,2,21.471999999999984,20,104,24,57,26,52,41.17499999999997,0.8539999999999996,3.842999999999997,7.990999999999993,20,3,13,14,178,4,22,36,4,0,19,4.75,1,L,0.2313202247191011,0.2135,0.1746818181818182,0.2219722222222222
2,4,8,1,13,11.101999999999991,19,54,1,70,41,120,156.34300000000934,0.061,0.9759999999999995,0.5489999999999999,20,1,4,3,631,1,5,3,2,0,17,4.25,1,L,0.24777020602218697,0.061,0.19519999999999998,0.183
2,5,9,1,3,21.105999999999984,20,89,29,35,31,88,21.227999999999984,3.598999999999997,1.4029999999999991,1.646999999999999,20,10,10,7,90,12,13,10,5,0.5,33,4.5,1,L,0.23586666666666664,0.2999166666666666,0.10792307692307693,0.16469999999999999
2,5,10,1,12,17.506999999999987,19,86,39,44,60,47,20.129999999999985,0.061,2.9279999999999977,1.7079999999999989,20,1,10,8,99,1,13,8,5,0.5,34,4.75,1,L,0.20333333333333334,0.061,0.22523076923076923,0.2135
2,6,11,1,13,20.617999999999984,20,106,109,117,111,116,23.240999999999982,0.183,0.9149999999999996,0.061,20,2,3,1,114,2,4,1,2,1,24,2,1,L,0.20386842105263156,0.0915,0.22875,0.061
2,6,12,1,2,27.388999999999978,18,139,59,49,60,108,32.20799999999998,1.2199999999999993,0.7929999999999997,8.539999999999994,20,5,3,13,158,5,3,32,4,0.5,26,3.5,1,L,0.20384810126582276,0.244,0.2643333333333333,0.266875
2,7,13,1,2,17.079999999999988,20,85,56,15,16,52,17.201999999999988,13.785999999999989,1.585999999999999,0.061,20,17,6,1,86,53,7,1,4,0,20,5,1,L,0.20002325581395347,0.26011320754716977,0.22657142857142856,0.061
2,7,14,1,7,15.798999999999987,20,74,5,12,7,9,17.079999999999988,0.183,1.585999999999999,3.1719999999999975,20,2,6,13,77,2,8,14,6,1,72,6,1,L,0.2218181818181818,0.0915,0.19824999999999998,0.22657142857142856
2,8,15,1,1,26.59599999999998,15,114,76,78,62,83,27.14499999999998,0.6099999999999999,3.659999999999997,1.2809999999999993,18,4,10,6,117,4,15,7,3,0.5,22,3.25,1,L,0.23200854700854698,0.1525,0.24399999999999997,0.183
2,8,16,1,8,29.462999999999976,17,137,102,100,104,40,30.743999999999975,0.9759999999999995,10.003999999999992,3.0499999999999976,20,4,15,9,140,4,44,10,2,0.5,17,2.75,1,L,0.21959999999999996,0.244,0.22736363636363635,0.30499999999999994
2,9,17,1,1,21.349999999999984,19,91,81,77,73,84,23.362999999999982,0.427,0.061,5.062999999999996,20,2,1,12,103,2,1,18,3,1,36,3,1,L,0.2268252427184466,0.2135,0.061,0.28127777777777774
2,9,18,1,14,29.706999999999976,19,140,1,28,92,85,576.998999999953,0.061,0.061,0.061,20,1,1,1,2358,1,1,1,3,0,17,4.25,1,L,0.2446984732824427,0.061,0.061,0.061
3,1,1,1,2,20.495999999999984,20,101,52,55,25,51,22.020999999999983,4.269999999999997,8.051999999999994,2.561999999999998,20,13,16,9,105,19,30,14,4,0.5,29,4.25,1,L,0.2097238095238095,0.22473684210526312,0.26839999999999997,0.183
3,1,2,1,13,15.005999999999988,19,80,111,109,84,18,17.384999999999987,3.781999999999997,2.439999999999998,4.025999999999997,20,13,9,9,88,21,9,16,2,0,13,3.25,1,L,0.19755681818181817,0.18009523809523809,0.2711111111111111,0.251625
3,2,3,1,15,28.364999999999977,20,132,19,24,55,96,29.767999999999976,1.0979999999999994,10.308999999999992,1.9519999999999986,20,4,16,9,137,4,40,12,6,0,19,4.75,1,L,0.2172846715328467,0.27449999999999997,0.257725,0.16266666666666665
3,2,4,1,1,12.50499999999999,19,74,8,10,43,83,33.183999999999976,0.244,3.0499999999999976,2.439999999999998,20,1,9,9,155,1,9,13,3,0,20,5,1,L,0.21409032258064514,0.244,0.33888888888888885,0.18769230769230769
3,3,5,1,1,32.08599999999998,19,136,83,30,80,36,38.06399999999997,6.099999999999995,0.7929999999999997,4.391999999999997,20,13,5,11,157,29,6,18,3,0,16,4,1,L,0.24244585987261144,0.21034482758620687,0.13216666666666665,0.24399999999999997
3,3,6,1,8,13.48099999999999,18,72,100,107,17,92,15.249999999999988,0.061,12.13899999999999,0.9149999999999996,20,1,16,6,85,1,56,6,2,0,13,3.25,1,L,0.17941176470588235,0.061,0.21676785714285712,0.1525
3,4,7,1,8,12.87099999999999,18,58,107,98,6,105,13.602999999999989,3.476999999999997,15.371999999999987,3.1719999999999975,20,10,17,11,62,15,67,15,2,0.5,18,3,1,L,0.2194032258064516,0.23179999999999998,0.2294328358208955,0.21146666666666664
3,4,8,1,12,26.65699999999998,20,123,42,39,43,23,30.316999999999975,3.1719999999999975,2.439999999999998,15.432999999999987,20,13,7,15,145,15,8,70,5,0.5,36,5.25,1,L,0.20908275862068965,0.21146666666666664,0.30499999999999994,0.22047142857142854
3,5,9,1,15,18.299999999999986,20,91,13,16,17,18,19.214999999999986,0.488,0.9149999999999996,4.513999999999997,20,3,6,13,95,4,6,20,6,1,72,6,1,L,0.20226315789473684,0.122,0.1525,0.22569999999999998
3,5,10,1,2,28.974999999999977,20,161,53,56,58,112,30.560999999999975,2.2569999999999983,4.879999999999996,3.3549999999999973,20,10,15,10,171,14,28,19,4,0.5,26,3.5,1,L,0.17871929824561403,0.1612142857142857,0.1742857142857143,0.17657894736842106
3,6,11,1,12,16.34799999999999,16,64,46,43,40,45,16.40899999999999,0.061,0.6709999999999998,3.3549999999999973,17,1,3,13,65,1,4,18,5,1,60,5,1,L,0.2524461538461538,0.061,0.16775,0.18638888888888885
3,6,12,1,13,15.615999999999987,19,60,21,114,15,16,26.71799999999998,0.6099999999999999,5.123999999999996,0.061,20,2,14,1,105,2,19,1,2,0.5,38,5,1,L,0.2544571428571428,0.30499999999999994,0.26968421052631575,0.061
3,7,13,1,1,14.944999999999988,18,70,78,101,7,107,17.689999999999987,8.783999999999994,19.641999999999985,7.685999999999994,20,17,17,17,82,44,66,45,3,0,13,3.25,1,L,0.21573170731707317,0.1996363636363636,0.29760606060606054,0.17079999999999998
3,7,14,1,11,17.262999999999987,19,83,65,71,70,72,17.323999999999987,2.622999999999998,1.1589999999999994,2.500999999999998,20,9,4,10,84,12,4,13,4,1,48,4,1,L,0.20623809523809522,0.2185833333333333,0.28975,0.19238461538461538
3,8,15,1,3,23.72899999999998,18,112,26,31,29,15,34.037999999999975,2.561999999999998,1.2199999999999993,1.585999999999999,20,12,4,6,159,13,6,7,5,0.5,36,5.25,1,L,0.2140754716981132,0.19707692307692307,0.20333333333333334,0.22657142857142856
3,8,16,1,2,18.848999999999986,19,90,60,59,98,52,20.068999999999985,0.061,0.7319999999999998,0.061,20,1,4,1,96,1,4,1,4,0.5,26,3.5,1,L,0.2090520833333333,0.061,0.183,0.061
3,9,17,1,2,24.88799999999998,19,108,57,56,59,20,26.71799999999998,2.9279999999999977,5.245999999999996,0.244,20,8,11,1,116,13,16,1,4,0.5,30,4.5,1,L,0.23032758620689653,0.2252307692307692,0.3278749999999999,0.244
3,9,18,1,7,12.32199999999999,19,73,1,6,8,11,14.151999999999989,3.1719999999999975,0.183,0.9759999999999995,20,8,2,6,82,13,2,6,6,1,72,6,1,L,0.17258536585365852,0.24399999999999997,0.0915,0.16266666666666665
3,10,19,1,12,21.776999999999983,20,95,83,39,42,84,24.94899999999998,1.8909999999999987,1.646999999999999,5.367999999999996,20,8,4,13,108,12,6,31,5,0,16,4,1,L,0.23100925925925925,0.15758333333333333,0.2744999999999999,0.17316129032258062
3,10,20,1,14,18.970999999999986,19,98,96,36,97,104,20.617999999999984,14.761999999999988,37.81999999999997,41.47999999999997,20,17,18,17,105,62,167,158,3,0,12,3,1,L,0.19636190476190474,0.23809677419354836,0.22646706586826346,0.2625316455696202
3,11,21,1,7,19.641999999999985,20,94,3,7,83,80,19.702999999999985,9.942999999999993,1.2199999999999993,0.366,20,17,4,4,95,42,4,4,6,0,18,4.5,1,L,0.20739999999999997,0.2367380952380952,0.305,0.0915
3,11,22,1,2,12.87099999999999,17,67,56,49,55,53,15.066999999999988,1.7689999999999988,0.122,6.099999999999995,20,8,1,13,79,10,1,19,4,1,48,4,1,L,0.19072151898734177,0.1769,0.122,0.32105263157894726
3,12,23,1,7,7.502999999999994,17,36,4,1,5,11,12.01699999999999,3.781999999999997,5.611999999999996,0.366,20,12,13,2,60,16,26,2,6,1,72,6,1,L,0.2002833333333333,0.23637499999999995,0.21584615384615383,0.183
3,12,24,1,3,22.752999999999982,20,95,62,27,35,34,28.730999999999977,0.244,2.9279999999999977,1.585999999999999,20,2,8,5,118,2,9,6,5,0.5,34,4.75,1,L,0.2434830508474576,0.122,0.32533333333333325,0.2643333333333333
4,1,1,1,7,23.42399999999998,19,123,3,6,5,11,24.46099999999998,1.0979999999999994,9.698999999999993,6.099999999999995,20,4,18,11,127,4,48,23,6,1,72,6,1,L,0.19260629921259842,0.27449999999999997,0.20206249999999998,0.2652173913043478
4,1,2,1,12,24.82699999999998,19,115,17,103,24,43,50.08099999999996,0.061,1.524999999999999,0.183,20,1,6,1,218,1,6,1,5,0,19,4.75,1,L,0.2297293577981651,0.061,0.25416666666666665,0.183
4,2,3,1,11,9.332999999999993,20,55,69,63,107,66,14.63999999999999,8.539999999999994,0.9759999999999995,0.366,20,17,6,3,82,37,6,4,4,0.5,26,3.5,1,L,0.17853658536585365,0.2308108108108108,0.16266666666666665,0.0915
4,2,4,1,3,15.859999999999987,19,83,26,31,33,21,17.018999999999988,3.537999999999997,0.122,18.055999999999987,20,10,2,16,87,13,2,74,5,0.5,36,5.25,1,L,0.1956206896551724,0.27215384615384614,0.061,0.24399999999999997
4,3,5,1,11,26.16899999999998,19,133,65,62,72,68,26.59599999999998,0.7319999999999998,1.524999999999999,0.6099999999999999,20,8,5,4,136,8,7,4,4,1,48,4,1,L,0.19555882352941176,0.0915,0.21785714285714286,0.1525
4,3,6,1,7,14.944999999999988,13,67,9,6,5,12,15.249999999999988,6.587999999999995,3.0499999999999976,3.720999999999997,16,12,6,13,70,23,7,22,6,1,72,6,1,L,0.21785714285714286,0.2864347826086956,0.4357142857142855,0.16913636363636364
4,4,7,1,2,17.872999999999987,19,90,56,52,23,58,18.421999999999986,1.7689999999999988,10.247999999999992,0.061,20,4,14,1,95,5,36,1,4,0.5,30,4.5,1,L,0.1939157894736842,0.3537999999999999,0.2846666666666666,0.061
4,4,8,1,12,9.637999999999993,17,51,37,47,40,41,12.87099999999999,0.8539999999999996,1.7079999999999989,3.659999999999997,20,4,7,9,67,4,7,14,5,1,60,5,1,L,0.1921044776119403,0.21349999999999997,0.244,0.2614285714285714
4,5,9,1,2,22.874999999999982,20,110,53,57,56,60,26.83999999999998,1.524999999999999,0.244,0.183,20,7,2,1,130,7,2,1,4,1,48,4,1,L,0.20646153846153845,0.21785714285714283,0.122,0.183
4,5,10,1,11,17.262999999999987,20,99,7,61,70,67,59.29199999999996,0.061,0.5489999999999999,0.427,20,1,4,4,255,1,4,4,4,0.5,30,4.5,1,L,0.2325176470588235,0.061,0.13724999999999998,0.10675
4,6,11,1,8,29.523999999999976,18,131,92,42,102,16,61.30499999999995,1.4029999999999991,0.122,0.427,20,3,1,2,263,3,1,2,2,0,16,4,1,L,0.23309885931558932,0.46766666666666656,0.122,0.2135
4,6,12,1,2,37.81999999999997,19,172,56,5,2,59,39.16199999999997,51.11799999999996,16.713999999999988,5.7949999999999955,20,19,18,9,176,219,73,17,4,0,20,5,1,L,0.22251136363636362,0.23341552511415523,0.22895890410958902,0.3408823529411764
4,7,13,1,1,10.064999999999992,19,59,3,106,104,6,43.12699999999997,6.465999999999995,1.463999999999999,32.939999999999976,20,19,6,17,191,30,6,134,3,0,16,4,1,L,0.2257958115183246,0.2155333333333333,0.244,0.24582089552238803
4,7,14,1,13,15.493999999999987,19,73,114,45,113,120,18.360999999999986,2.683999999999998,0.061,0.488,20,7,1,3,87,9,1,3,2,0.5,17,2.75,1,L,0.21104597701149425,0.29822222222222217,0.061,0.16266666666666665
4,8,15,1,13,20.129999999999985,20,107,111,109,19,117,21.227999999999984,0.366,8.478999999999994,1.8299999999999987,20,3,17,9,112,3,39,10,2,0.5,18,3,1,L,0.18953571428571428,0.122,0.21741025641025638,0.183
4,8,16,1,7,7.807999999999994,12,32,6,9,12,39,8.112999999999994,0.244,2.3179999999999983,10.308999999999992,14,2,5,15,34,2,5,40,6,0.5,41,5.75,1,L,0.23861764705882352,0.122,0.46359999999999985,0.257725
4,9,17,1,11,17.994999999999987,17,94,61,46,72,45,18.055999999999987,7.319999999999994,0.122,0.9759999999999995,18,15,1,1,95,30,1,1,4,0,18,4.5,1,L,0.19006315789473682,0.24399999999999997,0.122,0.9759999999999995
4,9,18,1,14,24.70499999999998,18,107,86,95,87,49,25.43699999999998,23.85099999999998,0.061,2.805999999999998,20,19,1,6,109,100,1,10,3,0.5,22,3.25,1,L,0.23336697247706417,0.23850999999999997,0.061,0.28059999999999996
4,10,19,1,2,42.45599999999997,17,188,59,41,37,19,44.407999999999966,2.805999999999998,11.467999999999991,176.29000000001292,20,8,17,17,195,12,47,730,4,0,20,5,1,L,0.22773333333333332,0.23383333333333334,0.24399999999999997,0.2414931506849315
4,10,20,1,1,29.645999999999976,20,156,78,29,120,36,33.244999999999976,19.397999999999985,1.585999999999999,0.9759999999999995,20,19,6,6,173,92,6,6,3,0,15,3.75,1,L,0.19216763005780346,0.2108478260869565,0.2643333333333333,0.16266666666666665
4,11,21,1,14,43.30999999999997,17,188,96,94,34,72,44.346999999999966,1.1589999999999994,1.1589999999999994,3.2939999999999974,20,4,4,7,195,4,4,10,3,0,15,3.75,1,L,0.2274205128205128,0.28974999999999995,0.28975,0.32939999999999997
4,11,22,1,13,19.275999999999986,20,76,109,116,115,78,20.983999999999984,2.0739999999999985,3.781999999999997,2.3789999999999982,20,6,10,9,85,8,12,11,2,0.5,15,2.25,1,L,0.2468705882352941,0.25925,0.3151666666666666,0.21627272727272726
5,1,1,1,3,25.80299999999998,18,108,34,32,27,25,28.974999999999977,0.488,5.672999999999996,0.183,20,3,14,1,121,3,32,1,5,1,60,5,1,L,0.23946280991735536,0.16266666666666665,0.17728125,0.183
5,1,2,1,13,17.140999999999988,19,83,114,113,40,42,22.813999999999982,2.439999999999998,2.1959999999999984,3.659999999999997,20,11,7,11,101,15,9,16,2,0,14,3.5,1,L,0.22588118811881186,0.16266666666666665,0.244,0.22874999999999998
5,2,3,1,14,11.284999999999991,15,43,87,92,110,11,28.24299999999998,0.7319999999999998,2.500999999999998,7.807999999999994,20,4,4,14,111,4,6,32,3,0,14,3.5,1,L,0.25444144144144143,0.183,0.4168333333333332,0.244
5,2,4,1,2,15.859999999999987,18,82,20,58,57,45,34.525999999999975,2.0739999999999985,0.061,1.0979999999999994,20,5,1,5,147,7,1,5,4,0,19,4.75,1,L,0.2348707482993197,0.29628571428571426,0.061,0.2196
5,3,5,1,8,14.883999999999988,20,66,102,105,99,103,18.116999999999987,1.2809999999999993,0.122,0.7319999999999998,20,6,1,5,79,6,1,5,2,1,24,2,1,L,0.22932911392405061,0.2135,0.122,0.1464
5,3,6,1,1,35.867999999999974,20,179,73,13,81,40,36.17299999999997,2.3179999999999983,2.805999999999998,3.720999999999997,20,5,12,13,180,6,15,19,3,0,17,4.25,1,L,0.2009611111111111,0.3863333333333333,0.18706666666666666,0.19584210526315787
5,4,7,1,2,29.828999999999976,20,135,60,56,50,58,33.671999999999976,0.9759999999999995,1.7079999999999989,0.9149999999999996,20,4,5,5,157,5,6,5,4,1,48,4,1,L,0.2144713375796178,0.19519999999999996,0.2846666666666666,0.183
5,4,8,1,7,18.055999999999987,19,89,2,1,4,3,22.203999999999983,2.439999999999998,0.9759999999999995,0.061,20,7,5,1,105,9,5,1,6,1,72,6,1,L,0.21146666666666666,0.2711111111111111,0.19519999999999998,0.061
5,5,9,1,3,18.238999999999987,19,93,32,35,10,26,31.292999999999978,12.87099999999999,2.2569999999999983,0.061,20,18,6,1,154,45,10,1,5,0.5,36,5.25,1,L,0.2032012987012987,0.2860222222222222,0.22569999999999998,0.061
5,5,10,1,15,22.813999999999982,19,117,14,15,23,40,23.118999999999982,9.942999999999993,2.805999999999998,0.061,20,16,12,1,120,35,14,1,6,0.5,41,5.75,1,L,0.19265833333333332,0.2840857142857142,0.20042857142857143,0.061
5,6,11,1,3,31.902999999999974,17,150,27,81,31,30,33.366999999999976,6.160999999999995,0.6709999999999998,0.122,20,13,3,1,156,21,3,1,5,0.5,33,4.5,1,L,0.21389102564102563,0.29338095238095235,0.22366666666666665,0.122
5,6,12,1,7,14.273999999999988,19,74,3,4,5,11,16.957999999999988,0.9149999999999996,2.0129999999999986,2.622999999999998,20,5,9,7,86,7,11,8,6,1,72,6,1,L,0.19718604651162788,0.1307142857142857,0.183,0.3278749999999999
5,7,13,1,11,19.824999999999985,19,82,64,36,34,103,20.739999999999984,0.183,29.645999999999976,13.907999999999989,20,1,18,14,88,1,145,68,4,0,16,4,1,L,0.23568181818181816,0.183,0.2044551724137931,0.20452941176470588
5,7,14,1,15,11.040999999999991,19,54,13,17,21,76,18.726999999999986,3.9649999999999967,0.9759999999999995,0.8539999999999996,20,13,4,2,88,20,5,2,6,0.5,39,5.25,1,L,0.21280681818181818,0.19824999999999998,0.19519999999999998,0.42699999999999994
5,8,15,1,2,12.56599999999999,18,64,6,59,73,103,555.4659999999504,0.061,1.524999999999999,1.0979999999999994,20,1,9,5,2398,1,9,7,4,0,15,3.75,1,L,0.23163719766472057,0.061,0.16944444444444443,0.15685714285714286
5,8,16,1,13,35.867999999999974,20,147,111,119,22,24,38.06399999999997,2.1959999999999984,6.587999999999995,0.5489999999999999,20,5,13,4,161,8,19,4,2,0,16,4,1,L,0.23642236024844718,0.27449999999999997,0.34673684210526307,0.13724999999999998
5,9,17,1,7,12.01699999999999,14,58,2,6,9,7,12.26099999999999,5.123999999999996,0.7929999999999997,4.6969999999999965,17,15,5,13,61,22,5,27,6,1,72,6,1,L,0.20099999999999998,0.23290909090909087,0.1586,0.17396296296296296
5,9,18,1,12,20.251999999999985,17,101,37,43,40,14,23.362999999999982,4.452999999999997,3.1719999999999975,5.7949999999999955,20,12,10,16,113,17,13,30,5,0.5,36,5.25,1,L,0.20675221238938052,0.26194117647058823,0.244,0.19316666666666665
5,10,19,1,8,16.34799999999999,18,77,101,106,78,73,17.506999999999987,1.7079999999999989,4.269999999999997,1.0369999999999995,20,6,10,4,84,8,16,4,2,0,10,2.5,1,L,0.20841666666666664,0.21349999999999997,0.266875,0.25925
5,10,20,1,12,17.140999999999988,19,82,48,6,41,44,18.848999999999986,6.526999999999995,0.7319999999999998,2.683999999999998,20,11,3,9,91,18,3,12,5,0.5,36,5.25,1,L,0.20713186813186812,0.36261111111111105,0.244,0.22366666666666665
6,1,1,1,12,14.151999999999989,18,69,45,42,95,85,22.752999999999982,2.439999999999998,1.2199999999999993,8.295999999999994,20,6,5,13,107,7,6,31,5,0,16,4,1,L,0.2126448598130841,0.34857142857142853,0.20333333333333334,0.26761290322580644
6,1,2,1,13,30.255999999999975,19,146,115,113,78,12,31.292999999999974,6.8929999999999945,4.635999999999997,1.7079999999999989,20,17,12,7,150,28,16,8,2,0,13,3.25,1,L,0.20861999999999997,0.2461785714285714,0.28974999999999995,0.2135
6,2,3,1,13,22.264999999999983,20,105,120,115,112,109,22.508999999999983,1.0979999999999994,0.9149999999999996,0.122,20,7,3,1,106,7,3,1,2,1,24,2,1,L,0.21234905660377357,0.15685714285714286,0.305,0.122
6,2,4,1,11,16.530999999999988,19,77,62,64,68,90,16.713999999999988,0.061,3.2939999999999974,2.500999999999998,20,1,8,7,80,1,12,11,4,0.5,27,3.75,1,L,0.208925,0.061,0.27449999999999997,0.22736363636363635
6,3,5,1,12,17.262999999999987,18,90,43,24,13,72,19.214999999999986,12.07799999999999,8.234999999999994,0.244,20,18,14,1,99,42,32,1,5,0,21,5.25,1,L,0.1940909090909091,0.28757142857142853,0.25734375,0.244
6,3,6,1,13,22.508999999999983,19,122,119,112,7,1,23.60699999999998,0.244,16.591999999999988,5.001999999999996,20,2,16,13,129,2,71,20,2,0,16,4,1,L,0.183,0.122,0.2336901408450704,0.25009999999999993
6,4,7,1,8,13.785999999999989,19,79,104,107,98,108,15.981999999999987,0.366,0.122,0.305,20,4,2,2,89,4,2,2,2,1,24,2,1,L,0.17957303370786515,0.0915,0.061,0.1525
6,4,8,1,2,35.379999999999974,19,152,84,111,115,14,40.13799999999997,0.183,14.578999999999988,6.099999999999995,20,1,16,15,163,1,56,31,4,0,13,3.25,1,L,0.2462453987730061,0.183,0.26033928571428566,0.1967741935483871
6,5,9,1,14,12.99299999999999,15,67,86,92,93,65,15.554999999999987,1.1589999999999994,1.8299999999999987,15.615999999999987,20,5,5,15,76,5,6,46,3,0.5,22,3.25,1,L,0.20467105263157892,0.2318,0.30499999999999994,0.3394782608695652
6,5,10,1,7,18.238999999999987,20,86,10,8,4,78,18.543999999999986,4.269999999999997,3.903999999999997,2.0129999999999986,20,15,10,3,89,26,11,4,6,0.5,39,5.25,1,L,0.20835955056179772,0.16423076923076924,0.35490909090909084,0.5032499999999999
6,6,11,1,2,14.578999999999988,19,71,57,52,58,82,16.28699999999999,0.5489999999999999,15.127999999999988,3.842999999999997,20,2,16,13,79,2,74,20,4,0.5,27,3.75,1,L,0.2061645569620253,0.27449999999999997,0.20443243243243242,0.19215
6,6,12,1,11,30.743999999999975,20,131,63,109,70,68,33.488999999999976,1.585999999999999,0.305,1.524999999999999,20,5,2,6,148,7,2,7,4,0.5,26,3.5,1,L,0.226277027027027,0.22657142857142856,0.1525,0.21785714285714283
6,7,13,1,3,15.859999999999987,18,58,26,34,3,11,16.04299999999999,2.439999999999998,34.159999999999975,1.2199999999999993,19,10,17,5,59,12,130,6,5,0,22,5.5,1,L,0.27191525423728813,0.2033333333333333,0.26276923076923075,0.20333333333333334
6,7,14,1,15,16.896999999999988,18,77,14,13,16,21,17.323999999999987,28.120999999999977,3.1719999999999975,1.0369999999999995,20,19,12,6,79,120,20,6,6,1,72,6,1,L,0.2192911392405063,0.23434166666666664,0.1586,0.17283333333333334
6,8,15,1,7,13.968999999999989,20,70,9,3,2,8,14.456999999999988,3.781999999999997,1.1589999999999994,4.818999999999996,20,10,5,9,72,20,7,18,6,1,72,6,1,L,0.20079166666666665,0.1891,0.16557142857142856,0.2677222222222222
6,8,16,1,14,20.739999999999984,19,100,108,30,87,93,68.62499999999994,128.22200000000737,2.439999999999998,0.244,20,19,6,2,292,492,8,2,3,0,13,3.25,1,L,0.23501712328767121,0.26061382113821135,0.30499999999999994,0.122
6,9,17,1,13,14.700999999999988,20,71,75,13,109,76,49.04399999999996,460.7329999999504,1.7079999999999989,0.244,20,19,6,2,222,1892,6,2,2,0,14,3.5,1,L,0.2209189189189189,0.24351638477801266,0.2846666666666666,0.122
6,9,18,1,2,17.811999999999987,20,80,9,2,5,33,44.529999999999966,4.940999999999996,7.197999999999994,0.244,20,11,16,3,187,16,31,3,4,0.5,41,5.75,1,L,0.23812834224598928,0.30881249999999993,0.23219354838709674,0.08133333333333333
7,1,1,1,7,14.395999999999988,19,71,4,11,101,107,15.066999999999988,3.476999999999997,4.391999999999997,9.271999999999993,20,10,11,15,76,15,19,42,6,0,16,4,1,L,0.19824999999999998,0.23179999999999998,0.2311578947368421,0.22076190476190474
7,1,2,1,2,12.68799999999999,19,66,15,56,55,36,19.641999999999985,3.0499999999999976,5.855999999999995,14.395999999999988,20,9,12,16,93,12,23,61,4,0,19,4.75,1,L,0.2112043010752688,0.25416666666666665,0.25460869565217387,0.236
7,2,3,1,13,24.70499999999998,19,115,119,116,117,51,26.53499999999998,0.8539999999999996,0.122,6.099999999999995,20,4,1,11,121,4,1,19,2,0.5,16,2.5,1,L,0.219297520661157,0.2135,0.122,0.3210526315789473
7,2,4,1,8,26.47399999999998,19,109,106,105,100,103,27.937999999999978,0.183,0.122,1.585999999999999,20,2,2,9,121,2,2,12,2,1,24,2,1,L,0.23089256198347105,0.0915,0.061,0.13216666666666665
7,3,5,1,8,25.74199999999998,20,115,101,100,107,97,26.35199999999998,0.427,0.7929999999999997,1.646999999999999,20,1,2,7,118,1,2,7,2,1,24,2,1,L,0.22332203389830507,0.427,0.39649999999999985,0.2352857142857143
7,3,6,1,7,28.669999999999977,16,128,4,12,113,49,29.523999999999976,4.086999999999997,7.9299999999999935,3.3549999999999973,20,10,18,10,132,17,34,17,6,0,18,4.5,1,L,0.22366666666666665,0.24041176470588232,0.23323529411764704,0.19735294117647056
7,4,7,1,7,16.896999999999988,20,82,3,1,58,4,17.201999999999988,5.550999999999996,0.5489999999999999,3.3549999999999973,20,13,3,11,86,20,3,16,6,0.5,40,5.5,1,L,0.20002325581395347,0.27754999999999996,0.183,0.20968749999999997
7,4,8,1,11,13.11499999999999,20,78,68,69,67,22,13.846999999999989,6.221999999999995,1.7689999999999988,3.2939999999999974,20,15,5,11,84,27,6,14,4,0.5,30,4.5,1,L,0.1648452380952381,0.23044444444444442,0.29483333333333334,0.23528571428571426
7,5,9,1,12,18.787999999999986,19,84,41,38,44,18,18.909999999999986,4.269999999999997,1.8909999999999987,10.247999999999992,20,15,7,17,85,21,7,40,5,0.5,36,5.25,1,L,0.2224705882352941,0.2033333333333333,0.27014285714285713,0.2562
7,5,10,1,13,20.739999999999984,20,98,74,9,117,113,39.64999999999997,0.244,0.427,0.122,20,1,4,1,183,1,4,1,2,0,13,3.25,1,L,0.21666666666666665,0.244,0.10675,0.122
7,6,11,1,14,23.057999999999982,20,107,95,90,87,58,23.179999999999982,1.8299999999999987,4.6969999999999965,5.611999999999996,20,3,11,15,108,3,19,28,3,0.5,22,3.25,1,L,0.21462962962962961,0.6099999999999999,0.24721052631578944,0.20042857142857143
7,6,12,1,12,13.785999999999989,17,67,42,44,48,21,18.909999999999986,2.3789999999999982,2.1349999999999985,3.476999999999997,20,10,8,12,85,11,9,19,5,0.5,36,5.25,1,L,0.22247058823529411,0.21627272727272726,0.2372222222222222,0.183
7,7,13,1,11,19.153999999999986,20,75,61,70,68,19,19.336999999999986,1.0979999999999994,9.881999999999993,0.8539999999999996,20,7,14,3,77,8,42,4,4,0.5,30,4.5,1,L,0.2511298701298701,0.13724999999999998,0.23528571428571426,0.2135
7,7,14,1,7,11.345999999999991,19,57,1,2,6,11,12.80999999999999,1.8909999999999987,10.613999999999992,4.452999999999997,20,10,17,10,62,14,56,14,6,1,72,6,1,L,0.20661290322580644,0.13507142857142856,0.18953571428571428,0.3180714285714285
7,8,15,1,1,39.83299999999997,15,169,83,78,73,17,40.13799999999997,1.0979999999999994,11.223999999999991,2.561999999999998,17,5,17,9,171,6,54,9,3,0.5,24,3.75,1,L,0.2347251461988304,0.183,0.20785185185185184,0.2846666666666667
7,8,16,1,7,15.066999999999988,19,65,11,4,8,37,15.371999999999987,5.672999999999996,1.8299999999999987,29.035999999999976,20,15,7,16,67,29,11,110,6,0.5,41,5.75,1,L,0.2294328358208955,0.1956206896551724,0.16636363636363635,0.26396363636363634
7,9,17,1,12,27.693999999999978,20,117,44,70,46,45,27.937999999999978,3.3549999999999973,2.622999999999998,2.622999999999998,20,9,10,7,118,18,13,12,5,0.5,34,4.75,1,L,0.23676271186440676,0.18638888888888888,0.20176923076923076,0.21858333333333332
7,9,18,1,14,12.50499999999999,19,69,92,87,91,13,15.188999999999988,0.488,2.0129999999999986,9.393999999999993,20,3,5,12,81,4,7,31,3,0.5,24,3.75,1,L,0.1875185185185185,0.122,0.2875714285714286,0.30303225806451606
7,10,19,1,14,31.475999999999974,18,147,94,93,85,89,32.08599999999998,2.0739999999999985,0.366,5.428999999999996,20,8,3,14,149,8,3,24,3,1,36,3,1,L,0.21534228187919463,0.25925,0.122,0.22620833333333332
7,10,20,1,15,28.303999999999977,20,143,23,77,17,64,30.560999999999975,2.439999999999998,6.038999999999995,0.305,20,5,15,2,153,7,28,2,6,0,19,4.75,1,L,0.19974509803921567,0.34857142857142853,0.21567857142857141,0.1525
7,11,21,1,14,26.83999999999998,20,128,93,88,86,21,29.706999999999976,0.6099999999999999,0.366,0.305,20,3,2,3,139,3,2,3,3,0.5,24,3.75,1,L,0.21371942446043163,0.20333333333333334,0.183,0.10166666666666667
7,11,22,1,7,29.523999999999976,17,127,1,8,7,114,30.072999999999976,0.183,1.2199999999999993,9.759999999999993,20,1,5,14,130,1,6,38,6,0.5,38,5,1,L,0.2313307692307692,0.183,0.2033333333333333,0.25684210526315787
7,12,23,1,14,32.02499999999998,18,150,91,85,1,3,32.939999999999976,6.343999999999995,4.513999999999997,9.088999999999993,20,13,15,17,152,27,24,45,3,0,18,4.5,1,L,0.21671052631578944,0.23496296296296293,0.18808333333333332,0.20197777777777776
7,12,24,1,1,26.83999999999998,20,119,75,82,74,65,30.255999999999975,1.2199999999999993,0.122,0.9759999999999995,20,5,1,1,127,5,1,1,3,0.5,22,3.25,1,L,0.23823622047244092,0.244,0.122,0.9759999999999995
8,1,1,1,12,14.944999999999988,19,82,48,69,99,15,20.068999999999985,16.530999999999988,0.8539999999999996,0.122,20,19,2,1,103,71,2,1,5,0,17,4.25,1,L,0.19484466019417473,0.23283098591549295,0.4269999999999998,0.122
8,1,2,1,3,14.212999999999989,20,77,35,87,5,7,16.896999999999988,12.44399999999999,5.7339999999999955,6.648999999999995,20,19,14,15,89,49,25,33,5,0,20,5,1,L,0.18985393258426966,0.25395918367346937,0.22935999999999998,0.2014848484848485
8,2,3,1,11,30.926999999999975,19,146,27,67,72,62,33.793999999999976,0.122,1.0369999999999995,4.147999999999997,20,2,2,13,154,2,2,26,4,0.5,29,4.25,1,L,0.2194415584415584,0.061,0.5184999999999998,0.15953846153846155
8,2,4,1,12,18.360999999999986,19,89,12,43,38,2,35.318999999999974,0.183,2.805999999999998,5.916999999999995,20,2,13,14,163,2,16,28,5,0,22,5.5,1,L,0.216680981595092,0.0915,0.175375,0.21132142857142855
8,3,5,1,11,23.72899999999998,20,102,64,70,72,3,24.94899999999998,3.1719999999999975,4.391999999999997,0.6709999999999998,20,8,9,4,106,13,17,5,4,0.5,30,4.5,1,L,0.23536792452830185,0.244,0.25835294117647056,0.13419999999999999
8,3,6,1,14,21.349999999999984,18,113,92,94,89,57,22.264999999999983,1.646999999999999,0.7319999999999998,14.395999999999988,20,7,3,16,117,9,3,61,3,0.5,22,3.25,1,L,0.1902991452991453,0.183,0.244,0.23599999999999996
8,4,7,1,11,21.288999999999984,20,100,64,71,8,6,22.630999999999982,2.561999999999998,4.7579999999999965,3.1109999999999975,20,10,10,11,106,11,18,16,4,0,20,5,1,L,0.2135,0.2329090909090909,0.2643333333333333,0.19443749999999999
8,4,8,1,15,16.957999999999988,19,73,19,17,18,25,22.386999999999983,6.526999999999995,1.0369999999999995,4.574999999999997,20,14,4,11,93,23,4,18,6,0.5,41,5.75,1,L,0.24072043010752686,0.28378260869565214,0.25925,0.25416666666666665
8,5,9,1,14,24.88799999999998,20,144,85,86,92,95,27.08399999999998,0.488,0.061,1.7079999999999989,20,2,1,7,156,2,1,8,3,1,36,3,1,L,0.17361538461538462,0.244,0.061,0.21349999999999997
8,5,10,1,1,13.846999999999989,19,78,74,82,79,22,14.944999999999988,0.183,4.635999999999997,6.099999999999995,20,2,10,13,83,2,14,22,3,0.5,24,3.75,1,L,0.18006024096385542,0.0915,0.33114285714285707,0.2772727272727272
8,6,11,1,7,24.64399999999998,18,111,5,4,7,12,25.92499999999998,6.099999999999995,1.8299999999999987,0.244,20,14,5,2,118,25,5,2,6,1,72,6,1,L,0.21970338983050847,0.244,0.36599999999999994,0.122
8,6,12,1,15,13.41999999999999,17,56,16,21,34,27,14.334999999999988,14.212999999999989,1.646999999999999,0.122,20,18,5,1,62,66,6,1,6,0,22,5.5,1,L,0.23120967741935483,0.21534848484848482,0.27449999999999997,0.122
8,7,13,1,12,13.23699999999999,18,69,1,59,55,43,53.00899999999996,4.452999999999997,3.9649999999999967,1.2809999999999993,20,14,10,3,227,18,11,3,5,0,19,4.75,1,L,0.23351982378854624,0.24738888888888888,0.3604545454545454,0.42699999999999977
8,7,14,1,1,16.713999999999988,18,83,83,80,84,104,16.835999999999988,6.648999999999995,2.683999999999998,28.242999999999977,20,12,11,17,85,20,17,110,3,0.5,20,2.75,1,L,0.1980705882352941,0.3324499999999999,0.15788235294117647,0.2567545454545454
8,8,15,1,14,47.70199999999996,19,205,88,36,92,93,48.86099999999996,1.585999999999999,2.3179999999999983,1.8299999999999987,20,4,5,8,208,4,8,9,3,0.5,23,3.5,1,L,0.23490865384615384,0.3964999999999999,0.28975,0.2033333333333333
8,8,16,1,12,32.26899999999998,20,149,37,40,5,3,34.952999999999975,0.305,2.744999999999998,5.001999999999996,20,1,8,10,158,1,8,18,5,0,22,5.5,1,L,0.22122151898734174,0.305,0.34312499999999996,0.27788888888888885
8,9,17,1,1,22.874999999999982,20,106,75,80,76,2,23.301999999999982,2.2569999999999983,1.4029999999999991,4.879999999999996,20,7,9,12,110,9,11,25,3,0.5,24,3.75,1,L,0.21183636363636363,0.2507777777777777,0.12754545454545455,0.19519999999999998
8,9,18,1,14,26.35199999999998,20,120,86,56,105,108,30.377999999999975,1.2199999999999993,5.428999999999996,27.998999999999977,20,4,15,17,138,5,27,126,3,0,11,2.75,1,L,0.22013043478260869,0.24399999999999994,0.20107407407407407,0.2222142857142857
8,10,19,1,11,17.323999999999987,20,79,62,61,31,36,18.543999999999986,1.585999999999999,9.149999999999993,3.9649999999999967,20,4,16,7,87,4,33,7,4,0,18,4.5,1,L,0.2131494252873563,0.39649999999999985,0.2772727272727272,0.5664285714285712
8,10,20,1,13,29.950999999999976,19,128,60,120,79,119,36.84399999999997,0.122,0.244,0.9759999999999995,20,1,2,6,160,1,2,7,2,0,11,2.75,1,L,0.23027499999999998,0.122,0.122,0.13942857142857143
8,11,21,1,15,16.896999999999988,18,80,24,30,49,92,17.567999999999987,9.698999999999993,0.305,3.720999999999997,20,16,3,14,85,37,3,21,6,0,18,4.5,1,L,0.20668235294117646,0.2621351351351351,0.10166666666666667,0.17719047619047618
8,11,22,1,11,25.98599999999998,20,113,65,82,63,62,28.608999999999977,0.366,4.6969999999999965,3.1719999999999975,20,2,12,8,124,2,22,15,4,0.5,27,3.75,1,L,0.23071774193548386,0.183,0.2135,0.21146666666666666
8,12,23,1,11,10.613999999999992,17,55,67,66,65,89,11.467999999999991,2.0129999999999986,0.7929999999999997,27.998999999999977,20,9,3,17,58,9,4,124,4,0.5,27,3.75,1,L,0.19772413793103447,0.22366666666666665,0.19824999999999998,0.22579838709677416
8,12,24,1,12,11.467999999999991,17,57,42,3,97,6,14.517999999999988,18.116999999999987,3.598999999999997,39.22299999999997,20,19,14,17,71,82,20,170,5,0,19,4.75,1,L,0.2044788732394366,0.22093902439024388,0.17995,0.2307235294117647
9,1,1,1,11,23.362999999999982,19,107,61,64,63,23,26.65699999999998,0.122,1.9519999999999986,12.01699999999999,20,2,8,16,127,2,8,55,4,0.5,30,4.5,1,L,0.20989763779527557,0.061,0.24399999999999997,0.21849090909090907
9,1,2,1,7,13.11499999999999,18,59,11,7,8,41,13.968999999999989,1.2809999999999993,5.7949999999999955,7.014999999999994,20,5,14,15,64,8,19,30,6,0.5,41,5.75,1,L,0.218265625,0.160125,0.30499999999999994,0.2338333333333333
9,2,3,1,3,16.774999999999988,18,86,33,34,35,19,16.896999999999988,2.561999999999998,11.467999999999991,2.500999999999998,19,12,17,6,87,15,57,11,5,0.5,36,5.25,1,L,0.19421839080459768,0.1708,0.20119298245614034,0.22736363636363635
9,2,4,1,2,19.092999999999986,17,87,2,4,47,79,59.10899999999995,2.1959999999999984,2.1349999999999985,0.427,20,8,6,1,251,11,6,1,4,0,20,5,1,L,0.23549402390438245,0.19963636363636364,0.3558333333333333,0.427
9,3,5,1,8,22.935999999999982,20,112,97,103,99,48,23.118999999999982,2.500999999999998,0.8539999999999996,1.2199999999999993,20,10,5,4,114,14,6,4,2,0.5,17,2.75,1,L,0.20279824561403506,0.17864285714285713,0.14233333333333334,0.30499999999999994
9,3,6,1,13,14.273999999999988,16,65,35,111,109,16,26.04699999999998,2.1959999999999984,1.7689999999999988,1.7689999999999988,20,8,7,4,107,9,8,6,2,0,15,3.75,1,L,0.24342990654205607,0.244,0.221125,0.29483333333333334
9,4,7,1,15,11.040999999999991,17,51,14,16,19,69,13.54199999999999,5.7949999999999955,0.5489999999999999,4.208999999999997,20,15,5,12,60,25,6,23,6,0.5,40,5.5,1,L,0.22569999999999998,0.23179999999999995,0.0915,0.183
9,4,8,1,12,16.10399999999999,18,71,6,59,48,102,111.63000000000358,0.7319999999999998,0.7929999999999997,0.183,20,3,7,2,478,4,8,2,5,0,17,4.25,1,L,0.23353556485355645,0.183,0.09912499999999999,0.0915
9,5,9,1,14,16.530999999999988,18,76,92,85,42,93,17.140999999999988,0.244,6.8319999999999945,3.9649999999999967,20,2,12,13,79,2,25,21,3,0.5,23,3.5,1,L,0.21697468354430377,0.122,0.27327999999999997,0.18880952380952382
9,5,10,1,15,20.373999999999985,20,103,22,15,81,73,27.266999999999978,0.7929999999999997,0.7319999999999998,1.463999999999999,20,4,5,8,134,4,5,10,6,0,18,4.5,1,L,0.20348507462686566,0.19824999999999998,0.1464,0.1464
9,6,11,1,13,15.249999999999988,20,83,116,119,77,112,16.34799999999999,2.3789999999999982,5.916999999999995,2.500999999999998,20,10,12,9,90,13,24,12,2,0.5,15,2.25,1,L,0.18164444444444444,0.183,0.24654166666666663,0.20841666666666664
9,6,12,1,15,15.981999999999987,20,72,18,21,24,108,16.28699999999999,1.7079999999999989,9.332999999999993,5.123999999999996,20,6,14,11,73,9,33,22,6,0.5,38,5,1,L,0.22310958904109587,0.18977777777777777,0.28281818181818175,0.2329090909090909
9,7,13,1,3,10.796999999999992,18,54,31,59,75,120,12.32199999999999,17.506999999999987,21.776999999999983,1.4029999999999991,20,18,17,7,62,68,74,9,5,0,14,3.5,1,L,0.19874193548387095,0.25745588235294115,0.2942837837837837,0.15588888888888888
9,7,14,1,14,18.299999999999986,20,89,87,21,22,104,19.153999999999986,3.781999999999997,5.611999999999996,2.500999999999998,20,13,10,8,94,27,23,9,3,0,17,4.25,1,L,0.2037659574468085,0.14007407407407407,0.244,0.27788888888888885
9,8,15,1,1,36.53899999999997,17,162,83,81,82,40,41.60199999999997,0.488,0.244,2.744999999999998,20,3,2,8,183,3,2,12,3,0.5,23,3.5,1,L,0.2273333333333333,0.16266666666666665,0.122,0.22874999999999998
9,8,16,1,7,19.336999999999986,19,89,6,1,10,95,19.641999999999985,11.77299999999999,0.7929999999999997,1.0979999999999994,20,18,4,2,91,52,4,3,6,0.5,39,5.25,1,L,0.21584615384615383,0.22640384615384612,0.19824999999999998,0.36599999999999994
9,9,17,1,7,17.750999999999987,20,84,12,5,2,37,18.543999999999986,3.3549999999999973,4.6969999999999965,27.388999999999978,20,10,10,16,88,21,19,108,6,0.5,41,5.75,1,L,0.2107272727272727,0.15976190476190477,0.24721052631578946,0.2536018518518518
9,9,18,1,3,38.12499999999997,20,167,105,36,21,25,39.64999999999997,0.9759999999999995,1.463999999999999,2.744999999999998,20,5,8,10,173,7,8,17,5,0,18,4.5,1,L,0.2291907514450867,0.13942857142857143,0.183,0.1614705882352941
9,10,19,1,15,32.63499999999998,19,150,20,14,17,75,32.939999999999976,7.136999999999994,5.977999999999995,0.183,20,14,13,2,154,24,19,2,6,0.5,39,5.25,1,L,0.2138961038961039,0.29737499999999994,0.3146315789473684,0.0915
9,10,20,1,2,17.994999999999987,20,76,51,26,94,96,18.238999999999987,14.578999999999988,1.9519999999999986,2.622999999999998,20,19,7,8,78,58,7,9,4,0,15,3.75,1,L,0.2338333333333333,0.2513620689655172,0.2788571428571428,0.2914444444444444
9,11,21,1,8,10.735999999999992,16,56,104,73,99,80,17.933999999999987,19.397999999999985,0.6709999999999998,0.488,20,19,3,2,83,73,3,2,2,0,10,2.5,1,L,0.2160722891566265,0.26572602739726026,0.22366666666666665,0.244
9,11,22,1,12,12.62699999999999,20,68,89,43,44,118,24.58299999999998,0.061,0.9759999999999995,6.282999999999995,20,1,4,12,122,1,4,31,5,0,15,3.75,1,L,0.20149999999999998,0.061,0.24399999999999997,0.20267741935483868
9,12,23,1,7,13.785999999999989,19,69,4,2,9,10,19.397999999999985,2.744999999999998,0.7929999999999997,2.2569999999999983,20,9,5,10,91,12,5,12,6,1,72,6,1,L,0.21316483516483514,0.22874999999999998,0.1586,0.18808333333333332
9,12,24,1,3,11.589999999999991,20,60,34,30,80,13,21.959999999999983,0.9759999999999995,18.665999999999986,12.56599999999999,20,6,17,17,98,6,68,49,5,0,19,4.75,1,L,0.2240816326530612,0.16266666666666665,0.27449999999999997,0.2564489795918367
10,1,1,1,12,22.935999999999982,17,113,46,41,10,116,24.15599999999998,2.2569999999999983,2.805999999999998,7.258999999999994,20,8,9,15,119,12,15,33,5,0,18,4.5,1,L,0.20299159663865543,0.18808333333333332,0.18706666666666666,0.21996969696969695
10,1,2,1,1,48.61699999999996,17,212,78,73,70,19,49.89799999999996,2.1349999999999985,2.622999999999998,0.5489999999999999,20,6,10,2,220,7,12,2,3,0,16,4,1,L,0.22680909090909088,0.305,0.21858333333333332,0.27449999999999997
10,2,3,1,13,26.47399999999998,20,114,115,111,21,18,28.669999999999977,1.0979999999999994,3.781999999999997,2.683999999999998,20,5,12,6,121,5,18,7,2,0,16,4,1,L,0.23694214876033057,0.2196,0.21011111111111108,0.3834285714285714
10,2,4,1,14,11.528999999999991,19,60,90,93,94,1,20.434999999999985,4.879999999999996,2.2569999999999983,2.8669999999999978,20,12,8,9,104,18,8,12,3,0.5,24,3.75,1,L,0.1964903846153846,0.2711111111111111,0.28212499999999996,0.23891666666666667
10,3,5,1,15,10.247999999999992,18,53,17,20,24,23,20.739999999999984,2.0739999999999985,0.9149999999999996,0.9759999999999995,20,11,3,4,95,11,3,4,6,1,72,6,1,L,0.21831578947368419,0.18854545454545452,0.305,0.244
10,3,6,1,2,11.589999999999991,19,67,55,50,114,117,14.944999999999988,11.83399999999999,11.040999999999991,2.1349999999999985,20,17,18,5,87,52,51,5,4,0,12,3,1,L,0.17178160919540228,0.22757692307692307,0.21649019607843137,0.4269999999999998
10,4,7,1,7,15.249999999999988,17,79,2,3,10,6,16.16499999999999,0.122,1.524999999999999,1.646999999999999,20,1,7,7,86,1,7,11,6,1,72,6,1,L,0.18796511627906975,0.122,0.21785714285714283,0.14972727272727274
10,4,8,1,11,32.20799999999998,19,155,70,68,45,115,32.75699999999998,0.7319999999999998,5.062999999999996,9.149999999999993,20,4,11,16,160,5,18,43,4,0,15,3.75,1,L,0.20473124999999998,0.1464,0.28127777777777774,0.2127906976744186
10,5,9,1,2,13.48099999999999,19,62,54,90,92,113,17.689999999999987,56.363999999999955,1.8909999999999987,0.305,20,19,3,2,85,235,4,2,4,0,12,3,1,L,0.20811764705882352,0.23984680851063828,0.4727499999999999,0.1525
10,5,10,1,8,23.60699999999998,17,119,97,100,106,84,25.61999999999998,2.561999999999998,0.061,15.310999999999988,20,7,1,16,129,9,1,64,2,0.5,15,2.25,1,L,0.1986046511627907,0.2846666666666666,0.061,0.23923437499999997
10,6,11,1,2,22.081999999999983,16,112,53,16,57,76,25.98599999999998,4.208999999999997,11.467999999999991,1.524999999999999,20,15,17,3,130,22,53,3,4,0,17,4.25,1,L,0.19989230769230767,0.1913181818181818,0.21637735849056602,0.5083333333333331
10,6,12,1,7,9.393999999999993,13,54,11,5,2,27,10.186999999999992,0.427,5.123999999999996,222.0400000000182,15,3,10,16,56,3,21,895,6,0.5,41,5.75,1,L,0.1819107142857143,0.14233333333333334,0.24399999999999997,0.2480893854748603
10,7,13,1,11,10.491999999999992,18,42,71,112,116,113,11.284999999999991,19.763999999999985,7.197999999999994,0.061,20,19,17,1,46,82,28,1,4,0.5,16,2.5,1,L,0.24532608695652172,0.2410243902439024,0.2570714285714285,0.061
10,7,14,1,12,17.140999999999988,20,85,41,46,95,47,17.506999999999987,2.9279999999999977,4.208999999999997,4.025999999999997,20,9,15,12,87,11,23,21,5,0.5,33,4.5,1,L,0.20122988505747125,0.26618181818181813,0.18299999999999997,0.1917142857142857
10,8,15,1,3,11.345999999999991,20,60,29,32,33,1,11.528999999999991,1.646999999999999,1.3419999999999992,13.05399999999999,20,6,10,17,62,8,12,47,5,0.5,36,5.25,1,L,0.1859516129032258,0.205875,0.11183333333333333,0.2777446808510638
10,8,16,1,12,17.506999999999987,20,87,42,44,112,38,20.007999999999985,0.9759999999999995,10.186999999999992,5.550999999999996,20,6,15,13,96,7,37,26,5,0.5,32,4.25,1,L,0.20841666666666667,0.13942857142857143,0.2753243243243243,0.21349999999999997
10,9,17,1,7,32.51299999999998,20,169,3,10,81,97,32.69599999999998,9.271999999999993,7.136999999999994,4.818999999999996,20,14,13,14,171,33,28,24,6,0,17,4.25,1,L,0.1912046783625731,0.2809696969696969,0.25489285714285714,0.20079166666666665
10,9,18,1,15,28.181999999999977,20,122,16,92,120,45,28.913999999999977,4.940999999999996,3.3549999999999973,2.3179999999999983,20,11,11,9,126,17,17,12,6,0,16,4,1,L,0.22947619047619044,0.29064705882352937,0.19735294117647056,0.19316666666666665
10,10,19,1,12,25.43699999999998,18,123,4,44,65,38,147.49800000000664,0.6709999999999998,0.183,0.488,20,3,2,2,630,3,2,2,5,0,20,5,1,L,0.23412380952380948,0.22366666666666665,0.0915,0.244
10,10,20,1,3,16.34799999999999,20,75,36,28,32,33,16.40899999999999,0.305,0.122,0.122,20,2,1,1,76,3,1,1,5,1,60,5,1,L,0.21590789473684208,0.10166666666666667,0.122,0.122
11,1,1,1,8,10.003999999999992,18,50,97,105,104,4,11.650999999999991,1.3419999999999992,7.197999999999994,14.029999999999989,20,8,13,16,60,8,41,58,2,0.5,18,3,1,L,0.19418333333333332,0.16774999999999998,0.1755609756097561,0.24189655172413793
11,1,2,1,12,20.556999999999984,19,106,40,41,13,17,21.105999999999984,13.602999999999989,8.173999999999994,1.0979999999999994,20,17,14,6,110,51,27,8,5,0,22,5.5,1,L,0.19187272727272725,0.2667254901960784,0.3027407407407407,0.13724999999999998
11,2,3,1,3,14.700999999999988,19,76,32,30,36,51,16.22599999999999,0.122,7.014999999999994,3.476999999999997,20,2,17,15,81,2,35,21,5,0.5,34,4.75,1,L,0.20032098765432096,0.061,0.2004285714285714,0.16557142857142856
11,2,4,1,8,27.571999999999978,19,131,102,98,21,103,30.194999999999975,0.6709999999999998,3.598999999999997,0.061,20,3,8,1,142,3,15,1,2,0.5,18,3,1,L,0.21264084507042252,0.22366666666666665,0.23993333333333333,0.061
11,3,5,1,15,15.859999999999987,20,79,15,20,22,24,17.018999999999988,3.842999999999997,9.332999999999993,1.0369999999999995,20,12,14,6,85,14,35,6,6,1,72,6,1,L,0.2002235294117647,0.27449999999999997,0.2666571428571428,0.17283333333333334
11,3,6,1,8,30.011999999999976,17,133,2,79,108,106,83.32599999999994,0.061,0.061,0.061,20,1,1,1,356,1,1,1,2,0,13,3.25,1,L,0.23406179775280897,0.061,0.061,0.061
11,4,7,1,7,13.48099999999999,20,74,4,97,2,6,14.761999999999988,12.99299999999999,2.0739999999999985,1.7079999999999989,20,19,7,5,81,52,9,5,6,0.5,38,5,1,L,0.18224691358024692,0.24986538461538457,0.2304444444444444,0.3416
11,4,8,1,2,29.279999999999976,18,141,16,116,50,56,58.01099999999995,1.646999999999999,0.061,0.061,20,6,1,1,259,6,1,1,4,0,16,4,1,L,0.22398069498069498,0.27449999999999997,0.061,0.061
11,5,9,1,12,13.48099999999999,19,71,47,67,114,118,17.445999999999987,18.055999999999987,1.8299999999999987,2.9279999999999977,20,19,10,9,88,74,11,11,5,0,13,3.25,1,L,0.19824999999999998,0.24399999999999997,0.16636363636363635,0.2661818181818182
11,5,10,1,8,15.188999999999988,20,73,13,36,76,24,24.15599999999998,15.005999999999988,0.6099999999999999,9.088999999999993,20,19,4,14,105,60,4,37,2,0,20,5,1,L,0.23005714285714285,0.25009999999999993,0.1525,0.2456486486486486
11,6,11,1,8,20.922999999999984,19,87,97,100,99,44,23.362999999999982,2.500999999999998,0.9759999999999995,4.330999999999997,20,11,7,10,97,13,8,18,2,0.5,17,2.75,1,L,0.24085567010309275,0.19238461538461538,0.122,0.24061111111111108
11,6,12,1,3,22.203999999999983,16,105,31,86,34,56,23.66799999999998,1.524999999999999,1.0369999999999995,7.319999999999994,20,2,6,12,113,2,6,21,5,0,17,4.25,1,L,0.2094513274336283,0.7624999999999995,0.17283333333333334,0.34857142857142853
11,7,13,1,1,21.532999999999983,19,102,79,82,6,7,21.654999999999983,6.221999999999995,5.855999999999995,0.5489999999999999,20,13,14,2,104,17,30,2,3,0,18,4.5,1,L,0.20822115384615383,0.36599999999999994,0.19519999999999998,0.27449999999999997
11,7,14,1,8,15.493999999999987,20,78,107,97,101,99,16.530999999999988,5.123999999999996,1.4029999999999991,7.258999999999994,20,14,4,14,84,18,4,26,2,1,24,2,1,L,0.19679761904761903,0.2846666666666666,0.35074999999999995,0.27919230769230763
11,8,15,1,2,29.584999999999976,15,135,1,49,34,52,44.651999999999965,0.5489999999999999,1.2199999999999993,0.6709999999999998,20,4,6,3,203,4,6,3,4,0,19,4.75,1,L,0.2199605911330049,0.13724999999999998,0.20333333333333334,0.22366666666666665
11,8,16,1,11,24.82699999999998,20,116,62,64,65,120,27.815999999999978,2.805999999999998,0.7319999999999998,2.561999999999998,20,7,4,10,128,11,4,14,4,0.5,26,3.5,1,L,0.2173125,0.2550909090909091,0.183,0.183
11,9,17,1,15,16.896999999999988,20,78,15,20,17,116,28.60899999999998,0.9759999999999995,0.6099999999999999,1.3419999999999992,20,5,3,3,127,6,3,4,6,0.5,38,5,1,L,0.22526771653543307,0.16266666666666665,0.20333333333333334,0.3354999999999999
11,9,18,1,8,22.508999999999983,18,124,100,105,31,98,22.752999999999982,4.635999999999997,2.744999999999998,0.061,20,14,10,1,127,19,13,1,2,0.5,17,2.75,1,L,0.17915748031496062,0.24399999999999994,0.21115384615384614,0.061
11,10,19,1,11,12.93199999999999,19,63,64,72,109,120,13.11499999999999,8.661999999999994,11.589999999999991,0.9759999999999995,20,14,16,3,64,34,55,4,4,0,12,3,1,L,0.20492187499999998,0.2547647058823529,0.2107272727272727,0.244
11,10,20,1,12,31.658999999999974,20,143,37,24,39,21,31.963999999999974,6.404999999999995,2.500999999999998,0.5489999999999999,20,18,8,3,146,27,10,3,5,0,22,5.5,1,L,0.21893150684931506,0.2372222222222222,0.25009999999999993,0.183
11,11,21,1,8,30.316999999999975,19,148,6,106,81,101,39.77199999999997,0.366,0.305,0.7929999999999997,20,3,1,4,185,3,1,5,2,0,13,3.25,1,L,0.21498378378378377,0.122,0.305,0.1586
11,11,22,1,2,31.902999999999974,20,157,51,50,55,54,32.32999999999998,0.8539999999999996,1.2809999999999993,3.720999999999997,20,3,4,11,159,3,4,16,4,1,48,4,1,L,0.2033333333333333,0.2846666666666666,0.3202499999999999,0.23256249999999998
11,12,23,1,2,51.54499999999996,18,230,49,23,14,95,55.265999999999956,16.10399999999999,10.247999999999992,7.8689999999999936,20,18,16,13,243,72,36,37,4,0,19,4.75,1,L,0.22743209876543208,0.22366666666666665,0.28466666666666657,0.21267567567567566
11,12,24,1,12,16.835999999999988,19,78,38,41,8,10,18.848999999999986,8.356999999999994,12.74899999999999,10.369999999999992,20,17,17,15,86,40,63,40,5,0,22,5.5,1,L,0.21917441860465114,0.20892499999999997,0.20236507936507933,0.25925
12,1,1,1,2,17.323999999999987,20,68,50,49,58,55,17.811999999999987,0.122,0.488,6.770999999999995,20,1,3,13,72,1,3,32,4,1,48,4,1,L,0.24738888888888888,0.122,0.16266666666666665,0.21159374999999997
12,1,2,1,7,13.48099999999999,17,78,2,1,7,12,14.151999999999989,5.977999999999995,5.855999999999995,7.807999999999994,20,15,15,16,82,23,28,41,6,1,72,6,1,L,0.17258536585365852,0.25991304347826083,0.20914285714285713,0.19043902439024388
12,2,3,1,15,20.800999999999984,17,103,17,18,14,39,21.593999999999983,0.7929999999999997,10.186999999999992,1.1589999999999994,19,2,18,3,105,2,38,3,6,0.5,41,5.75,1,L,0.20565714285714284,0.3964999999999999,0.26807894736842103,0.38633333333333325
12,2,4,1,8,41.54099999999997,17,172,98,108,93,88,41.78499999999997,5.611999999999996,9.149999999999993,7.807999999999994,19,13,16,14,174,18,39,24,2,0,10,2.5,1,L,0.24014367816091953,0.31177777777777765,0.2346153846153846,0.32533333333333325
12,3,5,1,11,23.72899999999998,20,111,65,72,71,23,23.91199999999998,3.2939999999999974,3.4159999999999973,5.184999999999996,20,9,12,13,113,17,19,20,4,0.5,30,4.5,1,L,0.21161061946902654,0.19376470588235292,0.17978947368421053,0.25925
12,3,6,1,13,21.105999999999984,20,126,118,109,113,60,24.09499999999998,5.550999999999996,6.099999999999995,1.9519999999999986,20,14,15,8,139,28,28,11,2,0.5,16,2.5,1,L,0.1733453237410072,0.19824999999999998,0.21785714285714283,0.17745454545454545
12,4,7,1,2,13.11499999999999,19,70,55,51,50,45,17.079999999999988,0.366,2.439999999999998,8.966999999999993,20,1,12,16,83,1,19,39,4,0.5,29,4.25,1,L,0.20578313253012048,0.366,0.12842105263157894,0.2299230769230769
12,4,8,1,11,35.501999999999974,17,144,66,70,74,117,37.02699999999997,3.781999999999997,20.373999999999985,5.428999999999996,20,13,18,14,151,21,102,26,4,0,13,3.25,1,L,0.24521192052980131,0.18009523809523806,0.19974509803921567,0.2088076923076923
12,5,9,1,8,10.064999999999992,18,55,105,103,35,11,11.589999999999991,8.905999999999993,17.933999999999987,6.709999999999995,20,18,18,16,65,42,67,31,2,0,15,3.75,1,L,0.1783076923076923,0.212047619047619,0.26767164179104475,0.2164516129032258
12,5,10,1,12,14.700999999999988,19,80,44,48,14,120,15.371999999999987,9.942999999999993,5.916999999999995,0.488,20,17,14,3,84,43,25,4,5,0,18,4.5,1,L,0.183,0.23123255813953486,0.23668,0.122
12,6,11,1,3,35.684999999999974,20,169,32,3,35,10,42.08999999999997,1.7689999999999988,0.122,0.8539999999999996,20,4,1,4,197,4,1,4,5,0,22,5.5,1,L,0.21365482233502536,0.4422499999999998,0.122,0.2135
12,6,12,1,11,19.641999999999985,20,98,66,61,69,64,20.495999999999984,1.524999999999999,5.916999999999995,3.1719999999999975,20,6,15,12,102,8,21,17,4,1,48,4,1,L,0.20094117647058823,0.190625,0.2817619047619047,0.18658823529411764
12,7,13,1,15,13.785999999999989,20,68,17,14,24,20,14.212999999999989,3.537999999999997,2.0129999999999986,0.9759999999999995,20,12,6,6,70,18,8,6,6,1,72,6,1,L,0.20304285714285714,0.19655555555555554,0.251625,0.16266666666666665
12,7,14,1,11,17.689999999999987,20,81,69,72,85,115,22.142999999999983,3.659999999999997,12.50499999999999,5.855999999999995,20,11,16,14,98,16,57,27,4,0,13,3.25,1,L,0.2259489795918367,0.22874999999999998,0.21938596491228068,0.21688888888888888
12,8,15,1,11,32.81799999999998,20,136,67,68,27,65,33.610999999999976,4.025999999999997,2.0739999999999985,1.4029999999999991,20,13,4,8,138,17,4,9,4,0.5,29,4.25,1,L,0.24355797101449272,0.23682352941176468,0.5184999999999998,0.15588888888888888
12,8,16,1,2,33.915999999999976,18,158,51,49,52,40,34.708999999999975,0.5489999999999999,3.537999999999997,6.8319999999999945,20,4,9,12,161,4,13,20,4,0.5,29,4.25,1,L,0.215583850931677,0.13724999999999998,0.27215384615384614,0.3415999999999999
12,9,17,1,8,13.48099999999999,19,60,102,36,19,107,17.445999999999987,30.438999999999975,3.2939999999999974,0.366,20,18,11,3,74,124,14,3,2,0,15,3.75,1,L,0.23575675675675675,0.24547580645161288,0.23528571428571426,0.122
12,9,18,1,7,33.183999999999976,19,146,6,2,66,9,34.403999999999975,3.2939999999999974,5.184999999999996,0.6709999999999998,20,8,10,6,149,11,21,7,6,0.5,40,5.5,1,L,0.2308993288590604,0.2994545454545454,0.2469047619047619,0.09585714285714285
12,10,19,1,1,20.190999999999985,19,103,80,81,107,14,20.251999999999985,12.87099999999999,9.881999999999993,4.025999999999997,20,19,18,9,104,51,49,15,3,0,14,3.5,1,L,0.1947307692307692,0.2523725490196078,0.20167346938775507,0.26839999999999997
12,10,20,1,3,9.576999999999993,16,54,27,28,30,34,9.942999999999993,4.6969999999999965,0.6709999999999998,0.305,18,11,3,2,56,24,3,2,5,1,60,5,1,L,0.17755357142857142,0.19570833333333332,0.22366666666666665,0.1525
12,11,21,1,2,32.08599999999998,20,146,58,50,57,99,32.20799999999998,2.0129999999999986,2.439999999999998,6.526999999999995,20,8,9,14,147,9,11,24,4,0.5,26,3.5,1,L,0.2191020408163265,0.22366666666666665,0.2218181818181818,0.2719583333333333
12,11,22,1,7,21.715999999999983,20,102,2,8,10,38,21.776999999999983,5.7949999999999955,2.2569999999999983,33.366999999999976,20,15,9,16,103,26,11,137,6,0.5,41,5.75,1,L,0.2114271844660194,0.22288461538461538,0.2051818181818182,0.24355474452554743
12,12,23,1,3,34.098999999999975,20,149,30,36,17,25,35.074999999999974,2.0129999999999986,0.244,1.0979999999999994,20,6,1,6,155,6,1,6,5,0.5,36,5.25,1,L,0.22629032258064513,0.33549999999999996,0.244,0.183
12,12,24,1,7,19.519999999999985,18,89,3,8,6,54,19.580999999999985,1.646999999999999,14.639999999999988,0.061,19,7,17,1,90,8,62,1,6,0.5,40,5.5,1,L,0.21756666666666666,0.205875,0.2361290322580645,0.061
13,1,1,1,8,24.15599999999998,19,121,98,101,104,10,27.388999999999978,1.646999999999999,0.061,2.439999999999998,20,8,1,5,132,8,1,5,2,0.5,18,3,1,L,0.20749242424242423,0.20587499999999997,0.061,0.4879999999999998
13,1,2,1,13,27.14499999999998,18,116,111,115,118,17,29.157999999999976,0.6709999999999998,6.8319999999999945,6.465999999999995,20,2,16,14,124,2,29,29,2,0.5,18,3,1,L,0.23514516129032256,0.3355,0.2355862068965517,0.22296551724137928
13,2,3,1,11,19.275999999999986,20,88,15,62,35,30,21.471999999999984,3.659999999999997,11.467999999999991,0.7929999999999997,20,11,15,1,95,22,50,1,4,0,20,5,1,L,0.22602105263157893,0.16636363636363635,0.22935999999999998,0.7929999999999997
13,2,4,1,14,29.889999999999976,20,151,92,86,95,1,32.20799999999998,1.3419999999999992,2.500999999999998,0.366,20,7,7,1,161,8,7,1,3,0.5,24,3.75,1,L,0.20004968944099377,0.16775,0.3572857142857142,0.366
13,3,5,1,12,18.055999999999987,19,87,44,37,4,45,19.580999999999985,5.7949999999999955,7.136999999999994,1.2809999999999993,20,14,14,5,97,25,31,6,5,0.5,36,5.25,1,L,0.2018659793814433,0.23179999999999995,0.23022580645161286,0.2135
13,3,6,1,13,22.142999999999983,20,101,117,22,109,66,25.74199999999998,1.3419999999999992,2.1959999999999984,5.001999999999996,20,3,9,13,126,4,13,25,2,0,14,3.5,1,L,0.2043015873015873,0.33549999999999996,0.16892307692307693,0.20007999999999998
13,4,7,1,7,20.373999999999985,20,104,5,6,9,11,23.057999999999982,1.8909999999999987,0.244,5.367999999999996,20,7,2,9,114,7,2,14,6,1,72,6,1,L,0.20226315789473684,0.2701428571428571,0.122,0.38342857142857134
13,4,8,1,14,40.25999999999997,19,172,90,114,91,93,45.017999999999965,0.488,1.7079999999999989,2.0129999999999986,20,4,4,10,193,5,4,12,3,0.5,20,2.75,1,L,0.23325388601036268,0.09759999999999999,0.4269999999999999,0.16775
13,5,9,1,15,13.48099999999999,20,68,13,17,16,24,21.288999999999984,0.061,7.197999999999994,3.1719999999999975,20,1,14,11,95,1,32,16,6,1,72,6,1,L,0.22409473684210524,0.061,0.22493749999999998,0.19824999999999998
13,5,10,1,3,26.90099999999998,20,121,1,65,2,64,40.07699999999997,14.944999999999988,2.0739999999999985,0.244,20,18,9,2,170,52,11,2,5,0,20,5,1,L,0.2357470588235294,0.2874038461538461,0.18854545454545454,0.122
13,6,11,1,11,24.21699999999998,20,115,1,25,66,68,53.19199999999996,0.427,2.561999999999998,2.683999999999998,20,2,12,10,234,2,16,13,4,0,19,4.75,1,L,0.2273162393162393,0.2135,0.160125,0.20646153846153842
13,6,12,1,1,10.186999999999992,14,48,17,81,73,23,63.43999999999995,0.305,0.8539999999999996,0.122,20,3,4,1,267,3,4,1,3,0,18,4.5,1,L,0.23760299625468162,0.10166666666666667,0.2135,0.122
13,7,13,1,7,16.10399999999999,20,82,9,4,77,10,18.482999999999986,5.001999999999996,6.404999999999995,2.8669999999999978,20,9,12,5,93,18,19,7,6,0.5,39,5.25,1,L,0.19874193548387095,0.27788888888888885,0.33710526315789463,0.40957142857142836
13,7,14,1,11,44.041999999999966,20,200,68,66,15,18,47.45799999999996,0.6099999999999999,0.061,1.646999999999999,20,3,1,4,218,4,1,4,4,0,20,5,1,L,0.21769724770642201,0.1525,0.061,0.41174999999999995
13,8,15,1,13,10.857999999999992,19,51,31,68,117,118,29.88999999999998,2.744999999999998,5.001999999999996,0.427,20,8,16,1,130,9,20,1,2,0,13,3.25,1,L,0.2299230769230769,0.305,0.2501,0.427
13,8,16,1,12,14.212999999999989,18,80,1,48,37,42,15.371999999999987,0.6709999999999998,1.1589999999999994,9.454999999999993,20,4,6,15,84,4,6,39,5,0.5,36,5.25,1,L,0.183,0.16775,0.19316666666666665,0.2424358974358974
13,9,17,1,15,30.011999999999976,20,145,111,18,22,110,35.562999999999974,0.122,4.574999999999997,2.2569999999999983,20,1,13,7,168,1,20,8,6,0,16,4,1,L,0.2116845238095238,0.122,0.22874999999999998,0.28212499999999996
13,9,18,1,8,22.874999999999982,20,113,1,5,108,72,38.67399999999997,0.366,0.183,2.1959999999999984,20,2,2,8,184,2,2,9,2,0,18,4.5,1,L,0.21018478260869564,0.183,0.0915,0.24399999999999997
13,10,19,1,2,42.08999999999997,19,200,32,49,26,50,44.834999999999965,0.061,3.1719999999999975,0.8539999999999996,20,1,11,4,211,1,18,4,4,0,18,4.5,1,L,0.21248815165876775,0.061,0.17622222222222222,0.21349999999999997
13,10,20,1,14,17.750999999999987,20,84,96,95,71,94,18.116999999999987,2.500999999999998,2.1959999999999984,2.9279999999999977,20,11,6,14,87,17,8,20,3,0.5,22,3.25,1,L,0.2082413793103448,0.14711764705882352,0.27449999999999997,0.1464
13,11,21,1,12,25.74199999999998,18,119,47,46,1,43,27.754999999999978,3.720999999999997,3.1109999999999975,0.061,20,11,7,1,125,15,10,1,5,0.5,36,5.25,1,L,0.22204,0.24806666666666663,0.3111,0.061
13,11,22,1,15,11.528999999999991,17,52,18,16,20,100,15.310999999999988,1.1589999999999994,9.637999999999993,0.488,20,5,16,3,68,5,33,3,6,0.5,38,5,1,L,0.22516176470588234,0.23179999999999998,0.292060606060606,0.16266666666666665
13,12,23,1,7,23.42399999999998,20,103,3,8,7,97,24.21699999999998,0.7319999999999998,19.336999999999986,1.463999999999999,20,5,17,4,106,5,75,6,6,0.5,38,5,1,L,0.22846226415094337,0.1464,0.25782666666666665,0.244
13,12,24,1,14,37.75899999999997,20,179,86,85,91,51,38.67399999999997,3.598999999999997,5.367999999999996,0.9149999999999996,20,8,15,2,185,14,23,2,3,0.5,22,3.25,1,L,0.20904864864864864,0.2570714285714285,0.23339130434782604,0.4574999999999999
14,1,1,1,14,10.918999999999992,19,47,88,35,15,92,23.78999999999998,6.709999999999995,3.2939999999999974,3.3549999999999973,20,16,12,10,96,27,15,16,3,0,17,4.25,1,L,0.24781249999999996,0.2485185185185185,0.2196,0.20968749999999997
14,1,2,1,2,19.458999999999985,18,97,51,38,83,41,19.519999999999985,3.9649999999999967,20.983999999999984,3.903999999999997,19,10,17,14,98,18,85,21,4,0,17,4.25,1,L,0.19918367346938773,0.22027777777777774,0.2468705882352941,0.1859047619047619
14,2,3,1,3,24.39999999999998,19,108,56,84,7,34,27.937999999999978,12.68799999999999,4.574999999999997,0.488,20,16,15,3,127,50,26,3,5,0,18,4.5,1,L,0.2199842519685039,0.25376,0.17596153846153845,0.16266666666666665
14,2,4,1,11,17.018999999999988,20,83,62,88,16,19,17.262999999999987,11.101999999999991,5.916999999999995,0.061,20,15,16,1,84,50,24,1,4,0,19,4.75,1,L,0.20551190476190476,0.22203999999999996,0.24654166666666663,0.061
14,3,5,1,1,14.212999999999989,18,75,2,102,49,26,54.899999999999956,0.061,1.2809999999999993,2.3789999999999982,20,1,6,4,238,1,6,6,3,0,17,4.25,1,L,0.230672268907563,0.061,0.2135,0.39649999999999996
14,3,6,1,15,18.543999999999986,20,83,46,22,17,19,26.47399999999998,0.183,5.367999999999996,2.439999999999998,20,2,13,5,121,2,29,6,6,0.5,41,5.75,1,L,0.21879338842975204,0.0915,0.18510344827586206,0.40666666666666657
14,4,7,1,15,18.421999999999986,19,90,18,21,22,27,20.617999999999984,1.0979999999999994,0.244,27.02299999999998,20,6,3,16,98,7,3,121,6,0.5,41,5.75,1,L,0.2103877551020408,0.15685714285714286,0.08133333333333333,0.22333057851239668
14,4,8,1,8,22.203999999999983,20,110,108,101,76,100,23.97299999999998,2.0129999999999986,1.3419999999999992,1.646999999999999,20,7,3,6,120,8,3,8,2,0.5,15,2.25,1,L,0.19977499999999998,0.25162499999999993,0.4473333333333332,0.205875
14,5,9,1,3,17.140999999999988,20,85,36,28,13,54,18.055999999999987,2.2569999999999983,4.086999999999997,6.770999999999995,20,8,6,13,92,10,12,29,5,0,20,5,1,L,0.19626086956521738,0.22569999999999998,0.34058333333333324,0.23348275862068965
14,5,10,1,7,17.689999999999987,18,82,7,8,10,61,18.360999999999986,0.6099999999999999,0.183,12.32199999999999,20,5,1,15,87,5,1,48,6,0.5,40,5.5,1,L,0.21104597701149425,0.122,0.183,0.2567083333333333
14,6,11,1,8,12.99299999999999,18,66,97,98,52,60,18.848999999999986,0.5489999999999999,5.550999999999996,4.452999999999997,20,3,11,11,89,3,25,15,2,0,12,3,1,L,0.21178651685393257,0.183,0.22204,0.2968666666666666
14,6,12,1,12,12.01699999999999,19,68,45,9,3,7,12.44399999999999,24.03399999999998,15.981999999999987,2.3179999999999983,20,19,17,10,71,89,79,11,5,0.5,41,5.75,1,L,0.1752676056338028,0.2700449438202247,0.2023037974683544,0.2107272727272727
14,7,13,1,14,17.689999999999987,19,103,86,95,69,105,20.068999999999985,0.183,7.8689999999999936,5.550999999999996,20,1,15,11,114,1,39,24,3,0,12,3,1,L,0.17604385964912278,0.183,0.20176923076923076,0.23129166666666662
14,7,14,1,7,7.807999999999994,16,43,1,5,11,12,9.942999999999993,2.3179999999999983,0.061,1.524999999999999,20,9,1,5,52,11,1,5,6,1,72,6,1,L,0.19121153846153843,0.21072727272727268,0.061,0.30499999999999994
14,8,15,1,3,25.49799999999998,18,102,29,25,30,5,30.011999999999976,2.622999999999998,0.122,0.061,20,13,2,1,121,16,2,1,5,0.5,36,5.25,1,L,0.24803305785123964,0.16393749999999999,0.061,0.061
14,8,16,1,12,31.597999999999974,20,150,16,47,105,96,101.87000000000064,0.6709999999999998,0.366,0.488,20,4,2,4,440,4,2,4,5,0,16,4,1,L,0.23152272727272724,0.16775,0.183,0.122
14,9,17,1,11,21.105999999999984,19,94,70,67,64,98,21.654999999999983,1.2199999999999993,1.7689999999999988,6.8929999999999945,20,5,6,14,98,5,6,31,4,0.5,26,3.5,1,L,0.22096938775510203,0.244,0.2948333333333333,0.2223548387096774
14,9,18,1,3,28.547999999999977,20,136,3,29,35,50,85.70499999999993,0.061,0.305,0.488,20,1,2,4,381,1,2,5,5,0,20,5,1,L,0.22494750656167978,0.061,0.1525,0.09759999999999999
14,10,19,1,12,31.719999999999974,20,149,38,14,15,89,33.366999999999976,20.800999999999984,35.684999999999974,25.55899999999998,20,19,18,17,161,90,140,104,5,0,20,5,1,L,0.20724844720496893,0.2311222222222222,0.25489285714285714,0.24575961538461535
14,10,20,1,1,22.508999999999983,20,112,76,99,67,73,24.58299999999998,5.001999999999996,1.0369999999999995,2.439999999999998,20,13,3,6,119,18,3,8,3,0,12,3,1,L,0.2065798319327731,0.27788888888888885,0.3456666666666666,0.30499999999999994
14,11,21,1,2,40.99199999999997,20,173,13,15,23,54,50.87399999999996,20.434999999999985,10.430999999999992,0.061,20,19,17,1,222,93,39,1,4,0.5,40,5.5,1,L,0.22916216216216215,0.21973118279569892,0.2674615384615384,0.061
14,11,22,1,1,17.506999999999987,20,88,31,61,62,80,27.20599999999998,1.9519999999999986,1.7689999999999988,0.183,20,6,6,3,125,6,9,3,3,0,16,4,1,L,0.21764799999999998,0.32533333333333325,0.19655555555555554,0.061
15,1,1,1,3,17.628999999999987,20,87,15,22,32,16,58.07199999999996,0.9759999999999995,0.122,0.061,20,6,1,1,268,6,1,1,5,0.5,41,5.75,1,L,0.21668656716417908,0.16266666666666665,0.122,0.061
15,1,2,1,8,13.48099999999999,17,61,97,99,55,56,16.713999999999988,9.027999999999993,22.386999999999983,1.585999999999999,20,16,18,5,75,40,100,6,2,0,12,3,1,L,0.22285333333333332,0.22569999999999998,0.22386999999999999,0.2643333333333333
15,2,3,1,13,22.813999999999982,18,117,38,49,40,11,53.80199999999996,0.061,1.7689999999999988,1.0369999999999995,20,1,10,4,257,1,11,4,2,0,20,5,1,L,0.2093463035019455,0.061,0.1608181818181818,0.25925
15,2,4,1,1,15.127999999999988,15,77,80,81,13,78,18.665999999999986,7.990999999999993,2.0129999999999986,0.244,20,18,8,2,96,36,11,2,3,0.5,24,3.75,1,L,0.19443749999999999,0.2219722222222222,0.183,0.122
15,3,5,1,7,25.19299999999998,20,114,1,3,5,41,25.25399999999998,2.1349999999999985,10.430999999999992,10.857999999999992,20,8,17,16,115,11,44,45,6,0.5,41,5.75,1,L,0.21959999999999996,0.1940909090909091,0.23706818181818182,0.24128888888888886
15,3,6,1,11,24.82699999999998,17,105,62,68,61,101,27.08399999999998,4.269999999999997,5.245999999999996,1.1589999999999994,20,11,11,3,117,16,13,4,4,0.5,26,3.5,1,L,0.23148717948717945,0.266875,0.4035384615384614,0.28975
15,4,7,1,8,22.874999999999982,19,105,69,74,76,83,41.29699999999997,5.977999999999995,2.0739999999999985,0.366,20,15,6,2,186,18,6,2,2,0.5,22,3.25,1,L,0.22202688172043009,0.332111111111111,0.3456666666666666,0.183
15,4,8,1,7,18.604999999999986,20,84,9,40,6,11,18.665999999999986,3.781999999999997,2.0129999999999986,0.488,20,11,8,2,85,16,8,2,6,0.5,41,5.75,1,L,0.2196,0.23637499999999997,0.25162499999999993,0.244
15,5,9,1,15,7.258999999999994,17,40,14,15,17,23,17.811999999999987,1.4029999999999991,2.9889999999999977,0.7319999999999998,20,7,12,4,90,7,13,4,6,1,72,6,1,L,0.1979111111111111,0.2004285714285714,0.2299230769230769,0.183
15,5,10,1,14,18.787999999999986,20,113,88,85,92,70,20.556999999999984,0.427,5.977999999999995,4.452999999999997,20,4,15,12,124,4,22,20,3,0.5,22,3.25,1,L,0.16578225806451613,0.10675,0.2717272727272727,0.22264999999999996
15,6,11,1,15,24.46099999999998,18,108,16,19,22,105,25.37599999999998,0.7319999999999998,14.212999999999989,2.744999999999998,20,5,17,8,111,5,70,8,6,0.5,38,5,1,L,0.2286126126126126,0.1464,0.20304285714285714,0.3431249999999999
15,6,12,1,3,22.142999999999983,20,99,35,36,34,31,24.03399999999998,0.6099999999999999,1.646999999999999,0.488,20,2,2,3,108,3,2,3,5,1,60,5,1,L,0.222537037037037,0.20333333333333334,0.8234999999999995,0.16266666666666665
15,7,13,1,14,31.963999999999974,20,145,90,85,94,6,33.610999999999976,6.160999999999995,1.2809999999999993,7.990999999999993,20,16,6,16,154,30,9,31,3,0.5,24,3.75,1,L,0.21825324675324673,0.20536666666666667,0.14233333333333334,0.2577741935483871
15,7,14,1,11,20.678999999999984,17,97,67,62,64,66,21.898999999999983,1.0369999999999995,0.305,7.624999999999994,20,3,3,16,104,3,3,31,4,1,48,4,1,L,0.2105673076923077,0.3456666666666666,0.10166666666666667,0.24596774193548385
15,8,15,1,1,30.438999999999975,18,134,1,76,82,9,46.725999999999964,0.9149999999999996,2.3179999999999983,1.646999999999999,20,5,8,4,225,5,9,4,3,0,18,4.5,1,L,0.20767111111111108,0.183,0.25755555555555554,0.4117499999999999
15,8,16,1,15,9.393999999999993,14,54,19,24,14,21,9.454999999999993,3.903999999999997,3.1109999999999975,3.476999999999997,15,13,8,8,55,19,13,10,6,1,72,6,1,L,0.1719090909090909,0.2054736842105263,0.23930769230769228,0.34769999999999995
15,9,17,1,15,22.630999999999982,18,115,19,13,23,15,23.85099999999998,0.8539999999999996,0.6709999999999998,4.025999999999997,20,2,2,14,120,2,2,23,6,1,72,6,1,L,0.19875833333333331,0.42699999999999994,0.3355,0.17504347826086955
15,9,18,1,12,22.691999999999982,16,112,42,8,48,45,25.13199999999998,18.604999999999986,0.183,1.0369999999999995,20,17,2,8,124,74,2,8,5,0.5,36,5.25,1,L,0.20267741935483868,0.2514189189189189,0.0915,0.129625
15,10,19,1,14,15.554999999999987,19,65,87,89,101,91,16.957999999999988,0.7319999999999998,2.2569999999999983,2.0739999999999985,20,7,6,8,70,7,8,10,3,0.5,20,2.75,1,L,0.24225714285714284,0.10457142857142857,0.28212499999999996,0.2074
15,10,20,1,15,21.898999999999983,20,125,18,22,23,24,22.020999999999983,6.038999999999995,1.646999999999999,3.476999999999997,20,13,6,11,126,21,9,16,6,1,72,6,1,L,0.17476984126984127,0.28757142857142853,0.18299999999999997,0.21731249999999996
15,11,21,1,1,10.613999999999992,18,48,21,43,14,56,80.82500000000066,3.476999999999997,28.852999999999977,2.439999999999998,20,9,18,10,341,12,118,11,3,0,21,5.25,1,L,0.23702346041055716,0.28974999999999995,0.24451694915254235,0.2218181818181818
15,11,22,1,7,16.774999999999988,16,85,9,1,105,3,20.312999999999985,1.1589999999999994,8.905999999999993,3.0499999999999976,20,6,16,7,94,6,31,9,6,0.5,38,5,1,L,0.21609574468085105,0.19316666666666665,0.28729032258064513,0.33888888888888885
16,1,1,1,7,16.16499999999999,19,71,11,2,3,47,18.787999999999986,0.244,7.502999999999994,0.488,20,2,16,2,86,2,31,3,6,0.5,41,5.75,1,L,0.21846511627906975,0.122,0.24203225806451611,0.16266666666666665
16,1,2,1,14,29.462999999999976,20,139,86,89,95,27,30.194999999999975,1.585999999999999,2.1959999999999984,6.770999999999995,20,3,8,15,142,3,8,27,3,0.5,23,3.5,1,L,0.21264084507042252,0.5286666666666665,0.27449999999999997,0.2507777777777777
16,2,3,1,1,23.97299999999998,19,110,77,79,82,76,25.43699999999998,1.1589999999999994,0.7319999999999998,0.5489999999999999,20,5,3,4,120,5,5,4,3,1,36,3,1,L,0.21197499999999997,0.23179999999999998,0.1464,0.13724999999999998
16,2,4,1,11,27.02299999999998,19,125,62,69,65,72,29.645999999999976,3.3549999999999973,0.488,6.587999999999995,20,8,3,12,141,11,3,20,4,1,48,4,1,L,0.21025531914893617,0.305,0.16266666666666665,0.3293999999999999
16,3,5,1,11,24.03399999999998,15,106,71,68,64,62,25.49799999999998,1.646999999999999,1.8909999999999987,3.781999999999997,20,6,10,11,111,7,10,17,4,1,48,4,1,L,0.2297117117117117,0.23528571428571426,0.18909999999999996,0.22247058823529411
16,3,6,1,15,17.140999999999988,19,81,19,17,43,23,18.665999999999986,0.9149999999999996,4.879999999999996,1.9519999999999986,20,6,11,4,87,8,21,5,6,0.5,41,5.75,1,L,0.21455172413793103,0.114375,0.23238095238095235,0.3903999999999999
16,4,7,1,12,11.95599999999999,20,66,38,12,109,39,16.652999999999988,28.669999999999977,0.305,0.122,20,19,1,1,86,129,1,1,5,0,18,4.5,1,L,0.19363953488372093,0.22224806201550387,0.305,0.122
16,4,8,1,8,22.752999999999982,16,88,97,107,15,106,24.09499999999998,1.8299999999999987,0.122,1.524999999999999,20,7,2,4,98,7,2,6,2,0.5,18,3,1,L,0.2458673469387755,0.2614285714285714,0.061,0.25416666666666665
16,5,9,1,11,18.421999999999986,18,78,67,65,61,63,18.726999999999986,0.9759999999999995,2.1349999999999985,6.709999999999995,19,4,7,16,79,4,9,29,4,1,48,4,1,L,0.2370506329113924,0.24399999999999994,0.23722222222222222,0.23137931034482756
16,5,10,1,8,17.994999999999987,16,93,99,107,97,6,18.970999999999986,0.061,0.122,7.380999999999994,18,1,1,16,95,1,1,32,2,0.5,18,3,1,L,0.19969473684210526,0.061,0.122,0.23065624999999998
16,6,11,1,13,19.153999999999986,20,96,115,6,10,3,21.227999999999984,9.881999999999993,1.7079999999999989,9.759999999999993,20,18,6,17,108,45,6,47,2,0.5,38,5,1,L,0.19655555555555554,0.21959999999999996,0.2846666666666666,0.20765957446808508
16,6,12,1,15,15.188999999999988,17,66,13,20,101,86,17.994999999999987,3.598999999999997,0.9149999999999996,1.8909999999999987,20,11,3,7,79,16,3,9,6,0,17,4.25,1,L,0.22778481012658228,0.22493749999999998,0.30499999999999994,0.2101111111111111
16,7,13,1,15,18.360999999999986,18,86,13,23,59,115,19.702999999999985,6.282999999999995,16.591999999999988,1.2199999999999993,20,15,17,6,94,27,73,6,6,0,18,4.5,1,L,0.2096063829787234,0.23270370370370366,0.2272876712328767,0.20333333333333334
16,7,14,1,3,20.312999999999985,19,96,27,35,36,28,20.434999999999985,0.6099999999999999,4.879999999999996,16.835999999999988,20,4,15,17,97,4,24,71,5,1,60,5,1,L,0.21067010309278347,0.1525,0.20333333333333334,0.23712676056338025
16,8,15,1,11,30.316999999999975,20,130,71,69,61,15,31.414999999999974,0.183,0.488,1.1589999999999994,20,3,2,2,135,3,2,2,4,0.5,30,4.5,1,L,0.23270370370370366,0.061,0.244,0.5794999999999999
16,8,16,1,2,13.785999999999989,18,69,100,88,10,11,31.597999999999978,6.465999999999995,9.881999999999993,9.454999999999993,20,16,17,16,135,26,49,41,4,0,17,4.25,1,L,0.23405925925925924,0.24869230769230766,0.20167346938775507,0.23060975609756093
16,9,17,1,3,16.28699999999999,14,70,27,28,26,12,18.238999999999987,2.3179999999999983,1.7079999999999989,11.589999999999991,20,10,6,16,77,11,6,44,5,0.5,36,5.25,1,L,0.23687012987012984,0.2107272727272727,0.2846666666666666,0.26340909090909087
16,9,18,1,2,32.87899999999998,19,138,53,51,54,113,35.867999999999974,0.7929999999999997,1.524999999999999,0.6099999999999999,20,3,8,3,151,3,8,3,4,0.5,26,3.5,1,L,0.23753642384105958,0.2643333333333333,0.190625,0.20333333333333334
16,10,19,1,3,22.813999999999982,20,118,28,25,114,20,23.057999999999982,1.585999999999999,9.210999999999993,1.0979999999999994,20,6,13,6,120,9,38,6,5,0,18,4.5,1,L,0.19215,0.17622222222222222,0.24239473684210525,0.183
16,10,20,1,7,17.994999999999987,17,89,3,8,6,9,18.116999999999987,1.0369999999999995,5.611999999999996,1.7079999999999989,19,4,16,5,91,5,27,6,6,1,72,6,1,L,0.19908791208791207,0.2074,0.20785185185185184,0.2846666666666666
16,11,21,1,3,14.944999999999988,19,71,32,18,19,76,16.469999999999988,12.19999999999999,5.062999999999996,2.8669999999999978,20,14,13,7,82,51,22,12,5,0,20,5,1,L,0.20085365853658535,0.2392156862745098,0.23013636363636364,0.23891666666666667
16,11,22,1,12,17.933999999999987,20,73,89,49,54,56,46.298999999999964,0.305,3.0499999999999976,2.622999999999998,20,3,7,10,187,3,10,12,5,0.5,27,3.75,1,L,0.2475882352941176,0.10166666666666667,0.30499999999999994,0.21858333333333332
16,12,23,1,11,14.883999999999988,17,72,70,67,63,44,15.310999999999988,5.672999999999996,3.9649999999999967,59.59699999999995,18,13,8,16,73,19,12,240,4,0.5,29,4.25,1,L,0.20973972602739727,0.298578947368421,0.3304166666666666,0.2483208333333333
16,12,24,1,15,14.029999999999989,20,76,17,21,23,117,14.395999999999988,0.8539999999999996,5.611999999999996,6.099999999999995,20,4,15,16,78,5,27,38,6,0.5,38,5,1,L,0.18456410256410255,0.1708,0.20785185185185184,0.16052631578947368
17,1,1,1,2,26.96199999999998,19,113,58,16,49,18,33.610999999999976,8.112999999999994,8.661999999999994,0.061,20,17,15,1,131,35,33,1,4,0,20,5,1,L,0.25657251908396944,0.23179999999999998,0.26248484848484843,0.061
17,1,2,1,12,24.70499999999998,18,94,106,43,42,37,26.96199999999998,0.488,4.940999999999996,1.0369999999999995,20,2,11,5,104,2,18,5,5,0.5,32,4.25,1,L,0.25925,0.244,0.27449999999999997,0.2074
17,2,3,1,7,14.395999999999988,19,74,5,10,78,48,14.456999999999988,12.93199999999999,0.122,1.0979999999999994,20,16,2,3,75,37,2,3,6,0,20,5,1,L,0.19276,0.3495135135135134,0.061,0.366
17,2,4,1,3,19.702999999999985,20,91,22,29,61,68,31.658999999999978,1.9519999999999986,4.940999999999996,2.500999999999998,20,8,12,8,144,10,23,11,5,0,19,4.75,1,L,0.21985416666666666,0.19519999999999998,0.21482608695652172,0.22736363636363635
17,3,5,1,7,13.663999999999989,17,66,9,6,10,12,19.824999999999985,1.4029999999999991,0.7319999999999998,3.3549999999999973,20,9,3,10,86,11,3,12,6,1,72,6,1,L,0.23052325581395344,0.12754545454545455,0.244,0.2795833333333333
17,3,6,1,14,15.981999999999987,19,67,86,46,92,16,17.262999999999987,5.977999999999995,2.0739999999999985,2.1349999999999985,20,13,5,8,74,20,6,10,3,0,17,4.25,1,L,0.23328378378378375,0.29889999999999994,0.34566666666666657,0.2135
17,4,7,1,14,31.841999999999974,17,142,90,93,85,31,32.57399999999998,0.061,1.463999999999999,2.0739999999999985,20,1,7,7,148,1,8,11,3,0.5,23,3.5,1,L,0.22009459459459457,0.061,0.183,0.18854545454545454
17,4,8,1,7,9.332999999999993,18,51,2,5,12,74,9.576999999999993,2.9279999999999977,1.9519999999999986,5.916999999999995,20,7,8,11,53,9,9,32,6,0.5,39,5.25,1,L,0.18069811320754717,0.32533333333333325,0.21688888888888888,0.18490625
17,5,9,1,13,18.177999999999987,19,93,114,95,118,111,20.983999999999984,2.8669999999999978,0.122,0.8539999999999996,20,8,1,4,105,10,1,4,2,0.5,15,2.25,1,L,0.19984761904761902,0.2866999999999999,0.122,0.2135
17,5,10,1,7,17.201999999999988,18,83,1,10,100,9,17.323999999999987,0.305,3.1719999999999975,6.343999999999995,20,2,11,13,85,2,20,26,6,0.5,38,5,1,L,0.20381176470588233,0.1525,0.1586,0.24399999999999997
17,6,11,1,12,18.421999999999986,19,85,47,101,79,97,21.349999999999984,2.561999999999998,3.1109999999999975,15.737999999999987,20,7,10,17,96,8,11,63,5,0,12,3,1,L,0.22239583333333332,0.32025,0.28281818181818175,0.2498095238095238
17,6,12,1,13,24.27799999999998,19,105,113,112,109,18,25.92499999999998,0.6099999999999999,3.4159999999999973,0.183,20,5,8,2,113,5,13,2,2,0.5,18,3,1,L,0.22942477876106193,0.122,0.26276923076923075,0.0915
17,7,13,1,2,22.874999999999982,20,109,58,52,105,56,23.48499999999998,0.9759999999999995,4.391999999999997,2.439999999999998,20,6,12,8,113,6,18,12,4,0.5,26,3.5,1,L,0.20783185840707963,0.16266666666666665,0.244,0.20333333333333334
17,7,14,1,7,16.22599999999999,18,88,9,6,10,35,17.323999999999987,0.488,12.87099999999999,1.2199999999999993,20,6,16,3,94,7,59,5,6,0.5,41,5.75,1,L,0.18429787234042552,0.06971428571428571,0.21815254237288134,0.244
17,8,15,1,11,16.896999999999988,19,70,6,72,116,70,81.74000000000004,0.183,0.244,0.366,20,2,2,2,317,2,2,2,4,0,16,4,1,L,0.2578548895899053,0.0915,0.122,0.183
17,8,16,1,12,16.957999999999988,20,74,47,46,43,78,17.079999999999988,0.6099999999999999,2.0739999999999985,4.025999999999997,20,2,7,8,76,2,9,13,5,0.5,33,4.5,1,L,0.22473684210526312,0.30499999999999994,0.23044444444444442,0.3096923076923076
17,9,17,1,11,29.645999999999976,18,144,70,98,71,107,40.62599999999997,0.9759999999999995,1.0369999999999995,3.4159999999999973,20,6,3,10,187,6,3,15,4,0,12,3,1,L,0.2172513368983957,0.16266666666666665,0.34566666666666657,0.22773333333333332
17,9,18,1,15,34.708999999999975,17,152,13,19,53,20,35.867999999999974,5.001999999999996,3.1719999999999975,3.0499999999999976,20,13,12,11,157,21,17,14,6,0.5,40,5.5,1,L,0.22845859872611463,0.23819047619047617,0.18658823529411764,0.21785714285714283
17,10,19,1,13,17.384999999999987,20,95,119,113,120,67,20.068999999999985,15.981999999999987,5.550999999999996,1.1589999999999994,20,17,15,8,107,70,21,9,2,0.5,16,2.5,1,L,0.18756074766355138,0.2283142857142857,0.2643333333333333,0.12877777777777777
17,10,20,1,12,11.95599999999999,20,54,17,106,38,74,26.47399999999998,1.585999999999999,0.427,0.9149999999999996,20,5,4,2,111,7,4,3,5,0,16,4,1,L,0.23850450450450447,0.22657142857142856,0.10675,0.305
17,11,21,1,3,13.663999999999989,20,68,28,1,83,99,14.700999999999988,20.068999999999985,14.395999999999988,9.271999999999993,20,19,17,16,74,88,65,33,5,0,16,4,1,L,0.19866216216216215,0.22805681818181817,0.22147692307692304,0.2809696969696969
17,11,22,1,13,11.162999999999991,20,59,114,17,115,120,11.223999999999991,31.841999999999974,0.5489999999999999,0.122,20,19,4,2,60,130,4,2,2,0.5,18,3,1,L,0.18706666666666666,0.24493846153846152,0.13724999999999998,0.061
17,12,23,1,2,22.264999999999983,19,107,51,57,50,12,23.362999999999982,0.5489999999999999,0.9759999999999995,6.282999999999995,20,3,6,14,113,4,7,27,4,0.5,30,4.5,1,L,0.20675221238938052,0.13724999999999998,0.13942857142857143,0.2327037037037037
17,12,24,1,3,20.129999999999985,19,95,32,22,30,24,21.349999999999984,6.8319999999999945,7.075999999999994,1.2809999999999993,20,12,16,6,103,26,29,6,5,0,22,5.5,1,L,0.20728155339805823,0.26276923076923075,0.24399999999999997,0.21349999999999997
18,1,1,1,13,26.65699999999998,20,120,118,120,115,117,28.608999999999977,3.537999999999997,0.7319999999999998,1.524999999999999,20,12,4,6,132,18,4,9,2,1,24,2,1,L,0.21673484848484847,0.19655555555555554,0.183,0.16944444444444443
18,1,2,1,3,41.72399999999997,19,197,30,29,24,21,42.82199999999997,2.1349999999999985,1.0979999999999994,2.439999999999998,20,7,7,10,202,8,8,14,5,0,22,5.5,1,L,0.21199009900990096,0.266875,0.13724999999999998,0.1742857142857143
18,2,3,1,1,27.08399999999998,20,148,75,6,3,69,30.316999999999975,25.98599999999998,2.561999999999998,2.2569999999999983,20,19,8,8,159,102,10,12,3,0,19,4.75,1,L,0.19067295597484277,0.2547647058823529,0.2562,0.1880833333333333
18,2,4,1,2,26.53499999999998,20,125,52,53,55,58,28.242999999999977,2.622999999999998,2.9279999999999977,0.7929999999999997,20,11,9,4,134,13,13,4,4,1,48,4,1,L,0.2107686567164179,0.20176923076923076,0.22523076923076923,0.19824999999999998
18,3,5,1,7,32.32999999999998,15,136,9,8,10,43,32.39099999999998,7.014999999999994,9.393999999999993,0.427,16,12,18,5,137,22,36,5,6,0.5,41,5.75,1,L,0.23643065693430657,0.3188636363636363,0.2609444444444444,0.0854
18,3,6,1,15,18.665999999999986,20,86,13,15,112,21,19.519999999999985,4.147999999999997,1.7689999999999988,0.122,20,9,5,1,93,13,7,1,6,0.5,38,5,1,L,0.20989247311827955,0.31907692307692304,0.2527142857142857,0.122
18,4,7,1,7,18.543999999999986,18,92,10,41,11,37,18.848999999999986,12.99299999999999,0.8539999999999996,1.8909999999999987,20,17,5,5,95,47,6,7,6,0,22,5.5,1,L,0.19841052631578945,0.27644680851063824,0.14233333333333334,0.27014285714285713
18,4,8,1,15,18.848999999999986,18,97,13,14,23,66,20.861999999999984,2.2569999999999983,3.1719999999999975,5.611999999999996,20,9,13,15,106,10,18,30,6,0.5,40,5.5,1,L,0.19681132075471697,0.22569999999999998,0.17622222222222222,0.18706666666666666
18,5,9,1,2,33.061999999999976,19,162,57,51,49,15,34.464999999999975,9.637999999999993,3.476999999999997,7.197999999999994,20,18,11,16,173,47,13,31,4,0.5,30,4.5,1,L,0.19921965317919074,0.205063829787234,0.2674615384615384,0.23219354838709674
18,5,10,1,12,36.66099999999997,19,161,45,43,46,73,37.63699999999997,3.4159999999999973,10.308999999999992,1.463999999999999,20,12,17,7,164,18,45,7,5,0.5,33,4.5,1,L,0.22949390243902437,0.18977777777777777,0.22908888888888887,0.2091428571428571
18,6,11,1,12,12.74899999999999,17,60,42,48,49,19,27.327999999999978,2.1349999999999985,3.598999999999997,14.151999999999989,20,7,11,17,120,8,15,52,5,0,20,5,1,L,0.22773333333333332,0.266875,0.2399333333333333,0.27215384615384614
18,6,12,1,7,8.112999999999994,16,42,1,5,4,7,10.186999999999992,0.488,1.7079999999999989,5.855999999999995,20,4,6,14,52,4,7,23,6,1,72,6,1,L,0.19590384615384615,0.122,0.24399999999999994,0.25460869565217387
18,7,13,1,14,13.785999999999989,17,65,85,25,9,88,16.530999999999988,24.21699999999998,183.0000000000137,0.061,20,19,18,1,75,99,732,1,3,0,17,4.25,1,L,0.22041333333333332,0.2446161616161616,0.24999999999999997,0.061
18,7,14,1,12,14.944999999999988,19,74,45,16,14,18,15.493999999999987,6.8929999999999945,22.752999999999982,0.9149999999999996,20,14,17,3,75,29,88,3,5,0.5,41,5.75,1,L,0.20658666666666664,0.23768965517241375,0.25855681818181814,0.305
18,8,15,1,8,20.556999999999984,20,101,108,105,103,60,20.922999999999984,2.9279999999999977,1.1589999999999994,0.9759999999999995,20,8,4,3,104,11,4,3,2,0.5,16,2.5,1,L,0.20118269230769228,0.2661818181818182,0.28974999999999995,0.3253333333333333
18,8,16,1,3,21.898999999999983,20,97,65,7,70,72,34.403999999999975,173.66700000001262,0.244,0.7929999999999997,20,19,2,4,149,726,2,5,5,0.5,30,4.5,1,L,0.23089932885906037,0.23921074380165286,0.122,0.1586
18,9,17,1,7,16.22599999999999,20,90,2,12,8,40,16.591999999999988,1.9519999999999986,3.2329999999999974,0.5489999999999999,20,6,13,2,93,6,17,2,6,0.5,41,5.75,1,L,0.17840860215053764,0.3253333333333333,0.19017647058823528,0.27449999999999997
18,9,18,1,8,25.92499999999998,20,128,105,103,25,106,28.120999999999977,1.2809999999999993,2.1349999999999985,2.439999999999998,20,6,5,11,135,7,7,20,2,0.5,17,2.75,1,L,0.20830370370370369,0.183,0.305,0.122
18,10,19,1,15,8.905999999999993,17,43,13,19,22,24,10.247999999999992,3.2329999999999974,2.622999999999998,1.2809999999999993,20,11,10,6,49,19,15,7,6,1,72,6,1,L,0.20914285714285713,0.1701578947368421,0.17486666666666667,0.183
18,10,20,1,1,17.384999999999987,20,89,82,74,45,11,19.092999999999986,1.0369999999999995,0.6709999999999998,11.589999999999991,20,6,2,15,95,6,2,45,3,0,17,4.25,1,L,0.20097894736842103,0.17283333333333334,0.33549999999999996,0.25755555555555554
20,1,1,1,13,22.752999999999982,20,103,115,113,57,85,27.449999999999978,4.025999999999997,0.7319999999999998,5.7339999999999955,20,9,3,15,126,11,3,27,2,0,11,2.75,1,L,0.21785714285714283,0.3659999999999999,0.244,0.21237037037037035
20,1,2,1,1,16.04299999999999,18,73,75,78,73,84,18.360999999999986,0.488,0.427,1.2809999999999993,20,3,3,9,82,3,3,10,3,1,36,3,1,L,0.22391463414634144,0.16266666666666665,0.14233333333333334,0.1281
20,2,3,1,12,33.976999999999975,20,145,37,42,46,38,37.27099999999997,1.3419999999999992,2.744999999999998,0.6099999999999999,20,3,14,3,159,3,16,3,5,1,60,5,1,L,0.2344088050314465,0.44733333333333314,0.1715625,0.20333333333333334
20,2,4,1,7,22.447999999999983,20,103,3,31,2,10,25.00999999999998,13.11499999999999,1.3419999999999992,1.463999999999999,20,18,5,6,111,44,5,7,6,0.5,41,5.75,1,L,0.2253153153153153,0.29806818181818173,0.26839999999999997,0.2091428571428571
20,3,5,1,7,14.700999999999988,13,64,4,6,7,43,14.761999999999988,3.659999999999997,2.8669999999999978,0.9149999999999996,14,11,8,2,65,19,12,3,6,0.5,41,5.75,1,L,0.2271076923076923,0.1926315789473684,0.2389166666666666,0.305
20,3,6,1,15,30.560999999999975,20,138,13,18,17,16,30.804999999999975,3.4159999999999973,1.524999999999999,15.737999999999987,20,11,4,16,140,12,4,60,6,1,72,6,1,L,0.22003571428571425,0.2846666666666666,0.38124999999999987,0.2623
20,4,7,1,2,27.754999999999978,19,119,55,49,51,8,27.998999999999977,0.6099999999999999,0.061,14.273999999999988,20,3,1,17,121,3,1,71,4,0.5,30,4.5,1,L,0.23139669421487602,0.20333333333333334,0.061,0.20104225352112676
20,4,8,1,3,22.630999999999982,18,116,30,35,25,17,23.48499999999998,1.8909999999999987,0.061,20.312999999999985,20,6,1,16,120,8,1,95,5,0.5,36,5.25,1,L,0.19570833333333332,0.236375,0.061,0.21382105263157894
20,5,9,1,7,17.994999999999987,15,92,4,1,5,105,18.238999999999987,13.05399999999999,5.062999999999996,3.9649999999999967,18,18,17,11,95,52,19,21,6,0.5,38,5,1,L,0.19198947368421052,0.2510384615384615,0.2664736842105263,0.18880952380952382
20,5,10,1,3,18.055999999999987,20,88,33,36,30,31,18.116999999999987,3.4159999999999973,0.305,0.8539999999999996,20,13,2,4,89,16,2,4,5,1,60,5,1,L,0.20356179775280897,0.2135,0.1525,0.2135
20,6,11,1,13,20.800999999999984,16,98,117,109,120,21,20.861999999999984,0.7929999999999997,15.127999999999988,4.635999999999997,17,5,18,12,99,5,67,24,2,0.5,18,3,1,L,0.2107272727272727,0.1586,0.2257910447761194,0.19316666666666665
20,6,12,1,8,20.861999999999984,20,98,100,102,101,4,25.00999999999998,0.488,1.524999999999999,3.2939999999999974,20,3,7,5,113,3,9,9,2,0.5,18,3,1,L,0.22132743362831858,0.16266666666666665,0.16944444444444445,0.36599999999999994
20,7,13,1,15,8.905999999999993,14,40,14,18,17,24,9.393999999999993,1.0979999999999994,7.197999999999994,0.427,17,8,16,2,43,8,35,2,6,1,72,6,1,L,0.21846511627906975,0.13724999999999998,0.20565714285714284,0.2135
20,7,14,1,11,32.51299999999998,18,150,64,104,69,27,37.20999999999997,1.8299999999999987,5.123999999999996,2.3179999999999983,20,4,11,7,182,6,17,10,4,0,15,3.75,1,L,0.20445054945054944,0.305,0.30141176470588227,0.2318
20,8,15,1,1,21.471999999999984,19,88,84,16,77,49,23.240999999999982,7.807999999999994,0.366,7.990999999999993,20,16,3,13,97,29,3,23,3,0,16,4,1,L,0.23959793814432986,0.2692413793103448,0.122,0.3474347826086956
20,8,16,1,7,18.848999999999986,20,90,2,11,10,93,19.702999999999985,4.940999999999996,1.646999999999999,2.0739999999999985,20,16,4,7,94,29,5,8,6,0.5,39,5.25,1,L,0.2096063829787234,0.1703793103448276,0.32939999999999997,0.25925
20,9,17,1,7,19.580999999999985,19,99,2,3,6,9,28.73099999999998,2.744999999999998,4.208999999999997,1.7689999999999988,20,9,11,4,134,12,14,5,6,1,72,6,1,L,0.214410447761194,0.22874999999999998,0.3006428571428571,0.35379999999999995
20,9,18,1,3,19.763999999999985,17,104,36,29,31,53,21.105999999999984,0.6099999999999999,3.1719999999999975,1.3419999999999992,20,3,7,6,107,4,10,7,5,0.5,34,4.75,1,L,0.1972523364485981,0.1525,0.3172,0.1917142857142857
20,10,19,1,13,9.149999999999993,18,47,118,16,120,21,15.37199999999999,25.07099999999998,1.2199999999999993,12.26099999999999,20,19,5,16,75,106,6,48,2,0,16,4,1,L,0.20495999999999998,0.23651886792452828,0.2033333333333333,0.2554375
20,10,20,1,3,18.726999999999986,20,77,1,6,31,100,184.5250000000117,0.122,8.417999999999994,1.8299999999999987,20,2,16,7,741,2,31,8,5,0,19,4.75,1,L,0.24902159244264505,0.061,0.2715483870967742,0.22874999999999998
20,11,21,1,7,19.763999999999985,19,84,6,3,9,30,19.824999999999985,2.744999999999998,2.3179999999999983,2.9889999999999977,20,9,8,9,85,12,10,15,6,0.5,41,5.75,1,L,0.23323529411764704,0.22874999999999998,0.23179999999999998,0.19926666666666665
20,11,22,1,15,22.752999999999982,19,103,17,14,13,88,25.07099999999998,15.371999999999987,1.8299999999999987,0.122,20,19,8,2,109,56,9,2,6,0.5,39,5.25,1,L,0.23000917431192658,0.27449999999999997,0.20333333333333334,0.061
21,1,1,1,15,14.822999999999988,20,83,24,14,19,48,19.824999999999985,4.513999999999997,2.500999999999998,4.330999999999997,20,10,12,11,104,11,15,17,6,0.5,41,5.75,1,L,0.190625,0.4103636363636363,0.16673333333333332,0.2547647058823529
21,1,2,1,3,20.983999999999984,19,101,32,27,35,4,21.166999999999984,1.0369999999999995,4.086999999999997,1.1589999999999994,20,6,10,7,102,7,13,8,5,0.5,36,5.25,1,L,0.20751960784313722,0.14814285714285713,0.3143846153846154,0.144875
21,2,3,1,3,19.641999999999985,16,92,29,26,33,50,21.776999999999983,1.7079999999999989,2.1349999999999985,7.746999999999994,20,5,9,14,104,6,10,30,5,0.5,34,4.75,1,L,0.20939423076923075,0.2846666666666666,0.2135,0.2582333333333333
21,2,4,1,11,21.105999999999984,18,101,64,66,14,83,23.240999999999982,3.537999999999997,23.54599999999998,2.439999999999998,20,12,18,14,111,14,101,17,4,0,17,4.25,1,L,0.20937837837837836,0.25271428571428567,0.23312871287128709,0.14352941176470588
21,3,5,1,8,25.86399999999998,19,131,46,76,107,64,57.88899999999995,0.7929999999999997,0.061,0.6709999999999998,20,3,1,3,279,3,1,3,2,0,14,3.5,1,L,0.2074874551971326,0.2643333333333333,0.061,0.22366666666666665
21,3,6,1,3,16.530999999999988,18,66,28,32,33,8,18.299999999999986,1.4029999999999991,4.025999999999997,11.467999999999991,20,7,11,17,74,8,16,49,5,0.5,36,5.25,1,L,0.24729729729729727,0.175375,0.251625,0.2340408163265306
21,4,7,1,8,21.654999999999983,20,90,99,98,43,84,24.76599999999998,3.2939999999999974,4.147999999999997,0.9149999999999996,20,11,13,2,100,20,23,2,2,0,12,3,1,L,0.24766,0.16469999999999999,0.18034782608695651,0.45749999999999985
21,4,8,1,3,32.939999999999976,19,140,115,5,117,119,46.96999999999996,2.744999999999998,12.50499999999999,8.051999999999994,20,11,18,14,198,12,58,35,5,0.5,18,3,1,L,0.2372222222222222,0.22874999999999998,0.21560344827586206,0.23005714285714282
21,5,9,1,11,15.859999999999987,19,78,69,71,41,45,20.007999999999985,1.8299999999999987,8.112999999999994,2.3179999999999983,20,9,17,8,91,12,34,11,4,0,18,4.5,1,L,0.21986813186813184,0.1525,0.23861764705882352,0.2107272727272727
21,5,10,1,13,20.129999999999985,20,75,117,110,50,28,22.386999999999983,1.463999999999999,5.123999999999996,9.637999999999993,20,10,13,17,92,12,20,47,2,0,13,3.25,1,L,0.24333695652173912,0.122,0.25619999999999993,0.20506382978723403
21,6,11,1,7,10.979999999999992,17,50,6,10,11,26,11.040999999999991,2.622999999999998,0.122,6.282999999999995,18,12,1,12,51,14,1,25,6,0.5,41,5.75,1,L,0.21649019607843137,0.18735714285714283,0.122,0.25131999999999993
21,6,12,1,11,21.593999999999983,19,99,67,66,95,69,31.902999999999977,1.3419999999999992,2.1349999999999985,1.463999999999999,20,4,10,5,134,4,14,5,4,0.5,27,3.75,1,L,0.23808208955223878,0.33549999999999996,0.1525,0.2928
21,7,13,1,14,12.99299999999999,18,59,87,95,93,117,15.859999999999987,0.061,3.3549999999999973,3.1719999999999975,20,1,8,12,71,1,11,17,3,0.5,20,2.75,1,L,0.22338028169014082,0.061,0.30499999999999994,0.18658823529411764
21,7,14,1,1,18.970999999999986,18,80,74,84,79,42,21.776999999999983,1.7079999999999989,1.7079999999999989,0.366,20,6,8,2,91,9,10,2,3,0.5,23,3.5,1,L,0.23930769230769228,0.18977777777777777,0.1708,0.183
21,8,15,1,7,18.116999999999987,19,81,2,73,4,6,21.959999999999983,2.9279999999999977,12.56599999999999,5.123999999999996,20,7,17,12,96,8,52,15,6,0.5,39,5.25,1,L,0.22874999999999998,0.36599999999999994,0.24165384615384614,0.3415999999999999
21,8,16,1,14,22.508999999999983,20,108,96,88,65,48,25.00999999999998,0.244,9.393999999999993,1.7079999999999989,20,1,15,8,117,1,38,10,3,0,15,3.75,1,L,0.21376068376068375,0.244,0.24721052631578944,0.1708
21,9,17,1,8,15.859999999999987,20,90,101,103,75,78,17.018999999999988,2.561999999999998,6.8319999999999945,5.611999999999996,20,11,14,12,94,14,25,29,2,0,10,2.5,1,L,0.1810531914893617,0.18299999999999997,0.27327999999999997,0.19351724137931034
21,9,18,1,7,12.99299999999999,19,58,7,5,10,93,14.822999999999988,6.8319999999999945,2.0739999999999985,5.062999999999996,20,17,8,12,63,31,8,19,6,0.5,39,5.25,1,L,0.23528571428571426,0.22038709677419352,0.25925,0.2664736842105263
21,10,19,1,12,15.066999999999988,19,79,40,38,21,68,28.852999999999977,0.9149999999999996,34.525999999999975,10.125999999999992,20,3,17,16,131,3,126,38,5,0,20,5,1,L,0.22025190839694656,0.30499999999999994,0.274015873015873,0.26647368421052625
21,10,20,1,7,12.01699999999999,20,57,3,12,4,10,27.449999999999978,0.305,1.2809999999999993,0.6709999999999998,20,3,5,5,123,3,6,5,6,1,72,6,1,L,0.22317073170731705,0.10166666666666667,0.2135,0.13419999999999999
21,11,21,1,3,29.950999999999976,19,136,26,29,8,30,32.02499999999998,3.476999999999997,14.212999999999989,2.2569999999999983,20,13,18,9,143,19,59,10,5,0.5,36,5.25,1,L,0.22395104895104892,0.183,0.24089830508474575,0.22569999999999998
21,11,22,1,15,15.615999999999987,20,76,17,15,16,19,16.896999999999988,4.269999999999997,0.488,0.6099999999999999,20,14,2,3,83,17,2,3,6,1,72,6,1,L,0.20357831325301204,0.2511764705882353,0.244,0.20333333333333334
21,12,23,1,2,6.343999999999995,13,28,60,106,49,55,9.027999999999993,3.842999999999997,6.404999999999995,0.366,20,10,16,3,40,13,27,3,4,0.5,26,3.5,1,L,0.22569999999999998,0.29561538461538456,0.2372222222222222,0.122
21,12,24,1,7,25.74199999999998,19,102,3,1,10,9,25.80299999999998,12.99299999999999,0.061,0.6099999999999999,20,19,1,4,103,48,1,4,6,1,72,6,1,L,0.2505145631067961,0.27068749999999997,0.061,0.1525
22,1,1,1,14,22.630999999999982,19,124,86,34,21,16,25.61999999999998,10.491999999999992,0.6099999999999999,2.805999999999998,20,16,2,11,135,42,2,12,3,0,20,5,1,L,0.18977777777777777,0.2498095238095238,0.305,0.23383333333333334
22,1,2,1,1,26.65699999999998,20,118,77,75,80,84,26.71799999999998,2.805999999999998,3.476999999999997,3.1109999999999975,20,8,12,14,119,10,17,22,3,1,36,3,1,L,0.22452100840336134,0.28059999999999996,0.20452941176470585,0.1414090909090909
22,2,3,1,2,27.937999999999978,20,133,59,49,15,18,28.486999999999977,3.903999999999997,1.7689999999999988,0.9759999999999995,20,12,4,1,136,16,4,1,4,0,20,5,1,L,0.20946323529411762,0.24399999999999997,0.4422499999999999,0.9759999999999995
22,2,4,1,7,18.543999999999986,18,102,7,10,12,104,19.702999999999985,1.646999999999999,1.7079999999999989,2.1959999999999984,20,7,8,8,108,7,8,12,6,0.5,38,5,1,L,0.18243518518518517,0.23528571428571426,0.2135,0.183
22,3,5,1,11,29.218999999999976,20,150,64,71,69,18,31.353999999999974,0.122,3.1719999999999975,0.427,20,1,10,1,159,1,15,1,4,0.5,30,4.5,1,L,0.1971949685534591,0.122,0.21146666666666664,0.427
22,3,6,1,3,13.41999999999999,20,62,1,104,6,32,34.464999999999975,0.427,0.122,1.2199999999999993,20,2,1,4,150,3,1,4,5,0,19,4.75,1,L,0.22976666666666665,0.14233333333333334,0.122,0.3049999999999999
22,4,7,1,14,21.105999999999984,18,93,87,85,86,33,25.37599999999998,6.282999999999995,1.3419999999999992,4.208999999999997,20,16,6,11,114,34,7,22,3,0.5,23,3.5,1,L,0.22259649122807015,0.1847941176470588,0.1917142857142857,0.19131818181818178
