Subject,Round,Phase,afterbreak,Schema,Schema_RT,Schema_OB,Schema_AS,Cho_1,Cho_2,Cho_3,Cho_4,RT_1,RT_2,RT_3,RT_4,OB_1,OB_2,OB_3,OB_4,AS_1,AS_2,AS_3,AS_4,schema_payoff,AC,performance,payoff,breakR,type,dwellmean_1,dwellmean_2,dwellmean_3,dwellmean_4
1,1,1,1,13,61.91499999999995,9,238,118,113,10,114,61.97599999999995,0.9759999999999995,2.0739999999999985,1.7689999999999988,10,4,10,4,239,4,15,4,2,0.5,18,3,1,L,0.2593138075313807,0.244,0.13826666666666668,0.44224999999999987
1,1,2,1,12,26.71799999999998,9,118,38,47,17,71,27.937999999999978,2.8669999999999978,4.6969999999999965,5.7949999999999955,15,9,8,12,124,14,14,28,5,0,20,5,1,L,0.2253064516129032,0.20478571428571427,0.33549999999999996,0.2069642857142857
1,2,3,1,14,56.729999999999954,10,245,90,96,91,24,56.912999999999954,0.183,0.061,5.062999999999996,12,1,1,13,247,1,1,21,3,0.5,24,3.75,1,L,0.23041700404858298,0.183,0.061,0.24109523809523806
1,2,4,1,7,15.615999999999987,16,75,5,1,6,8,15.676999999999987,6.953999999999994,0.061,3.0499999999999976,17,14,1,8,76,32,1,12,6,1,72,6,1,L,0.20627631578947367,0.21731249999999996,0.061,0.25416666666666665
1,3,5,1,8,15.737999999999987,20,64,102,105,99,14,17.201999999999988,1.7689999999999988,0.305,10.430999999999992,20,7,3,17,70,9,3,44,2,0.5,18,3,1,L,0.24574285714285712,0.19655555555555554,0.10166666666666667,0.2370681818181818
1,3,6,1,1,65.57500000000013,11,279,77,81,84,60,66.97800000000014,1.4029999999999991,1.9519999999999986,8.417999999999994,18,8,7,17,286,9,7,42,3,0.5,22,3.25,1,L,0.23418881118881116,0.15588888888888888,0.2788571428571428,0.2004285714285714
1,4,7,1,14,13.41999999999999,20,64,96,90,92,85,14.700999999999988,0.183,0.9149999999999996,0.244,20,1,5,1,68,1,5,1,3,1,36,3,1,L,0.21619117647058822,0.183,0.183,0.244
1,4,8,1,15,18.970999999999986,19,96,13,23,16,18,19.092999999999986,1.524999999999999,0.6709999999999998,11.589999999999991,20,7,3,17,98,8,3,50,6,1,72,6,1,L,0.1948265306122449,0.190625,0.22366666666666665,0.23179999999999998
1,5,9,1,11,52.52099999999996,11,211,101,15,14,63,64.90399999999995,8.356999999999994,2.500999999999998,0.427,20,18,9,2,258,45,11,2,4,0,18,4.5,1,L,0.2515658914728682,0.1857111111111111,0.22736363636363632,0.2135
1,5,10,1,7,12.87099999999999,20,74,2,6,10,7,15.432999999999987,0.6099999999999999,0.061,0.9759999999999995,20,7,1,5,88,7,1,5,6,1,72,6,1,L,0.175375,0.08714285714285715,0.061,0.19519999999999998
1,6,11,1,2,52.15499999999996,12,231,14,16,54,60,63.56199999999995,0.9149999999999996,0.427,1.1589999999999994,20,3,4,5,278,3,4,7,4,0,20,5,1,L,0.22864028776978415,0.305,0.10675,0.16557142857142856
1,6,12,1,12,10.308999999999992,15,55,43,46,37,41,13.05399999999999,0.305,2.1959999999999984,0.488,20,3,9,3,70,3,11,3,5,1,60,5,1,L,0.18648571428571428,0.10166666666666667,0.19963636363636364,0.16266666666666665
1,7,13,1,3,79.78800000000177,13,339,118,14,17,72,94.91600000000176,12.07799999999999,0.061,0.7929999999999997,20,18,1,3,411,62,1,3,5,0,18,4.5,1,L,0.2309391727493917,0.19480645161290322,0.061,0.2643333333333333
1,7,14,1,1,68.44200000000046,11,299,82,75,52,51,69.41800000000046,2.2569999999999983,1.3419999999999992,1.646999999999999,19,9,7,7,307,13,8,8,3,0,14,3.5,1,L,0.2261172638436482,0.17361538461538462,0.16775,0.205875
1,8,15,1,7,32.32999999999998,14,145,4,10,9,120,32.39099999999998,6.343999999999995,2.683999999999998,9.271999999999993,15,15,6,14,146,24,11,37,6,0.5,38,5,1,L,0.22185616438356162,0.2643333333333333,0.244,0.25059459459459454
1,8,16,1,12,31.170999999999975,18,139,44,39,38,59,31.597999999999974,1.2809999999999993,2.622999999999998,15.737999999999987,20,7,6,17,142,7,7,78,5,0.5,34,4.75,1,L,0.22252112676056338,0.183,0.3747142857142856,0.20176923076923076
1,9,17,1,2,17.140999999999988,20,81,14,51,16,41,31.170999999999978,0.8539999999999996,0.5489999999999999,7.136999999999994,20,4,1,14,144,4,1,24,4,0,21,5.25,1,L,0.21646527777777774,0.2135,0.5489999999999999,0.29737499999999994
1,9,18,1,1,44.651999999999965,11,183,84,75,79,69,45.078999999999965,0.6099999999999999,1.9519999999999986,4.452999999999997,13,7,6,8,185,7,11,11,3,0.5,22,3.25,1,L,0.24367027027027024,0.08714285714285715,0.17745454545454545,0.4048181818181817
1,10,19,1,11,43.24899999999997,19,196,63,67,40,114,45.932999999999964,0.366,1.7079999999999989,1.585999999999999,20,2,6,7,211,3,8,7,4,0,15,3.75,1,L,0.21769194312796206,0.122,0.2135,0.22657142857142856
1,10,20,1,2,74.8470000000012,18,325,5,35,8,53,98.39300000000118,0.6709999999999998,0.8539999999999996,1.8299999999999987,20,5,4,6,423,5,4,8,4,0,21,5.25,1,L,0.2326075650118203,0.13419999999999999,0.2135,0.22874999999999998
1,11,21,1,7,8.234999999999994,17,47,2,9,8,11,8.478999999999994,0.6709999999999998,0.122,0.305,18,2,1,3,48,2,1,3,6,1,72,6,1,L,0.17664583333333334,0.33549999999999996,0.122,0.10166666666666667
1,11,22,1,15,18.848999999999986,20,79,13,17,20,66,18.909999999999986,0.244,7.380999999999994,1.9519999999999986,20,1,15,9,80,1,37,10,6,0.5,40,5.5,1,L,0.23637499999999997,0.244,0.19948648648648645,0.19519999999999998
2,1,1,1,13,43.736999999999966,13,185,113,109,114,70,44.773999999999965,1.4029999999999991,1.7079999999999989,3.537999999999997,18,7,7,8,190,7,8,11,2,0.5,16,2.5,1,L,0.23565263157894734,0.20042857142857143,0.2135,0.3216363636363636
2,1,2,1,2,66.67300000000026,12,299,49,57,39,77,66.91700000000026,3.781999999999997,6.282999999999995,1.7079999999999989,14,8,13,6,301,14,27,6,4,0,16,4,1,L,0.2223156146179402,0.27014285714285713,0.2327037037037037,0.2846666666666666
2,2,3,1,7,21.471999999999984,10,93,7,10,12,50,21.532999999999983,1.2199999999999993,0.122,18.299999999999986,11,6,1,16,94,6,1,91,6,0.5,40,5.5,1,L,0.22907446808510637,0.20333333333333334,0.122,0.20109890109890108
2,2,4,1,15,8.417999999999994,9,46,22,19,20,18,8.478999999999994,1.2809999999999993,2.744999999999998,1.646999999999999,10,7,10,8,47,8,14,9,6,1,72,6,1,L,0.18040425531914892,0.160125,0.19607142857142856,0.183
2,3,5,1,8,12.50499999999999,18,53,104,106,56,13,12.56599999999999,2.8669999999999978,26.04699999999998,3.659999999999997,19,7,17,12,54,8,88,18,2,0,14,3.5,1,L,0.2327037037037037,0.35837499999999994,0.2959886363636363,0.20333333333333334
2,3,6,1,12,28.486999999999977,20,145,2,9,92,62,51.84999999999996,45.200999999999965,0.122,0.061,20,19,1,1,260,173,1,1,5,0,19,4.75,1,L,0.19942307692307693,0.2612774566473988,0.122,0.061
2,4,7,1,12,45.383999999999965,13,205,43,37,17,13,45.749999999999964,3.2939999999999974,14.395999999999988,4.269999999999997,16,10,16,13,208,14,64,23,5,0,22,5.5,1,L,0.21995192307692307,0.23528571428571426,0.22493749999999998,0.18565217391304348
2,4,8,1,13,45.505999999999965,13,198,8,111,93,62,153.23200000000497,0.061,0.122,0.244,20,1,1,3,606,1,1,3,2,0,15,3.75,1,L,0.2528580858085808,0.061,0.122,0.08133333333333333
2,5,9,1,3,13.54199999999999,17,60,35,36,29,64,14.395999999999988,1.585999999999999,0.122,6.282999999999995,20,5,2,13,67,5,2,29,5,0.5,34,4.75,1,L,0.21486567164179102,0.3172,0.061,0.2166551724137931
2,5,10,1,14,19.641999999999985,19,91,95,90,86,85,19.702999999999985,0.7929999999999997,0.9149999999999996,3.781999999999997,20,6,4,9,92,6,5,13,3,1,36,3,1,L,0.21416304347826084,0.13216666666666665,0.183,0.2909230769230769
2,6,11,1,11,78.75100000000165,10,288,64,24,21,44,79.17800000000166,1.0979999999999994,4.513999999999997,3.3549999999999973,13,7,13,11,291,7,23,17,4,0,21,5.25,1,L,0.27208934707903776,0.15685714285714286,0.19626086956521738,0.19735294117647056
2,6,12,1,3,21.044999999999984,20,99,30,26,34,114,21.593999999999983,4.391999999999997,1.3419999999999992,4.818999999999996,20,11,6,14,103,20,6,26,5,0.5,32,4.25,1,L,0.20965048543689319,0.21959999999999996,0.22366666666666665,0.18534615384615383
2,7,13,1,2,47.21399999999996,19,196,57,56,59,112,47.33599999999996,1.7689999999999988,0.122,0.305,20,5,1,1,197,6,1,1,4,0.5,26,3.5,1,L,0.24028426395939084,0.2948333333333332,0.122,0.305
2,7,14,1,15,75.51800000000128,10,311,23,19,36,62,77.95800000000128,0.9759999999999995,0.244,3.903999999999997,13,4,1,10,315,4,1,18,6,0,21,5.25,1,L,0.24748571428571425,0.244,0.244,0.21688888888888888
2,8,15,1,15,16.04299999999999,19,78,17,65,21,24,22.630999999999982,6.404999999999995,0.5489999999999999,0.122,20,15,2,1,115,29,2,1,6,0.5,40,5.5,1,L,0.19679130434782607,0.22086206896551724,0.27449999999999997,0.122
2,8,16,1,2,18.299999999999986,17,80,58,52,56,54,18.482999999999986,0.061,1.8909999999999987,1.463999999999999,19,1,10,6,82,1,13,7,4,1,48,4,1,L,0.22540243902439022,0.061,0.14546153846153845,0.20914285714285713
2,9,17,1,14,18.665999999999986,20,91,91,92,90,70,18.726999999999986,0.8539999999999996,1.0369999999999995,7.990999999999993,20,3,5,14,92,3,7,29,3,0.5,22,3.25,1,L,0.20355434782608695,0.2846666666666667,0.14814285714285713,0.275551724137931
2,9,18,1,12,13.29799999999999,19,69,44,38,37,3,15.615999999999987,2.3789999999999982,0.427,2.3179999999999983,20,8,4,7,77,8,4,10,5,0.5,36,5.25,1,L,0.2028051948051948,0.29737499999999994,0.10675,0.23179999999999995
2,10,19,1,11,44.651999999999965,14,178,92,1,96,62,72.34599999999995,4.7579999999999965,0.061,0.305,20,13,1,3,299,25,1,3,4,0,16,4,1,L,0.24195986622073576,0.19032,0.061,0.10166666666666667
2,10,20,1,3,25.43699999999998,12,120,30,36,28,31,26.04699999999998,1.2809999999999993,2.683999999999998,0.183,16,6,9,1,124,6,12,1,5,1,60,5,1,L,0.2100564516129032,0.2135,0.22366666666666665,0.183
2,11,21,1,2,69.23500000000055,9,281,49,50,22,54,69.60100000000055,0.305,2.0739999999999985,1.8299999999999987,12,4,5,7,284,4,5,8,4,0.5,30,4.5,1,L,0.2450739436619718,0.07625,0.41479999999999984,0.22875
2,11,22,1,12,20.129999999999985,20,87,42,40,38,37,21.959999999999983,0.366,4.269999999999997,3.781999999999997,20,3,15,8,96,3,23,13,5,1,60,5,1,L,0.22874999999999998,0.122,0.18565217391304348,0.2909230769230769
3,1,1,1,14,18.604999999999986,14,99,91,96,95,94,21.105999999999984,0.061,0.244,0.7319999999999998,20,1,2,3,107,1,2,3,3,1,36,3,1,L,0.1972523364485981,0.061,0.122,0.244
3,1,2,1,12,16.04299999999999,17,75,45,44,37,18,17.567999999999987,0.488,3.2939999999999974,2.683999999999998,20,2,10,8,81,2,18,11,5,0.5,36,5.25,1,L,0.21688888888888888,0.244,0.18299999999999997,0.244
3,2,3,1,7,11.467999999999991,18,61,4,72,11,83,11.528999999999991,7.9299999999999935,4.452999999999997,11.162999999999991,19,14,12,15,62,32,17,57,6,0,19,4.75,1,L,0.18595161290322582,0.24781249999999996,0.26194117647058823,0.1958421052631579
3,2,4,1,15,34.098999999999975,18,149,24,17,44,14,34.403999999999975,2.561999999999998,7.319999999999994,7.502999999999994,20,9,13,16,152,14,32,38,6,0.5,41,5.75,1,L,0.22634210526315787,0.18299999999999997,0.22874999999999998,0.19744736842105262
3,3,5,1,7,24.03399999999998,16,124,7,11,38,39,24.09499999999998,6.953999999999994,6.8929999999999945,2.8669999999999978,17,13,11,7,125,32,22,11,6,0,22,5.5,1,L,0.19276,0.2173125,0.3133181818181817,0.2606363636363636
3,3,6,1,15,54.716999999999956,16,225,18,24,17,32,55.204999999999956,0.305,4.940999999999996,11.467999999999991,19,2,10,16,229,2,21,56,6,0.5,41,5.75,1,L,0.24106986899563315,0.1525,0.23528571428571424,0.2047857142857143
3,4,7,1,11,32.14699999999998,14,126,66,67,69,18,32.57399999999998,1.646999999999999,2.500999999999998,18.055999999999987,15,10,6,17,128,10,9,94,4,0.5,30,4.5,1,L,0.254484375,0.16469999999999999,0.27788888888888885,0.1920851063829787
3,4,8,1,7,66.36800000000022,13,303,2,3,11,12,67.89300000000023,0.244,1.7689999999999988,0.305,15,2,6,2,305,2,10,2,6,1,72,6,1,L,0.2226,0.122,0.1769,0.1525
3,5,9,1,8,27.632999999999978,12,133,13,15,97,100,38.30799999999997,13.23699999999999,0.7319999999999998,0.061,20,17,3,1,178,64,3,1,2,0,16,4,1,L,0.2152134831460674,0.20682812499999997,0.244,0.061
3,5,10,1,13,55.570999999999955,15,248,116,119,2,71,64.72099999999995,2.622999999999998,51.36199999999996,0.5489999999999999,20,7,18,3,292,11,198,3,2,0,14,3.5,1,L,0.22164726027397258,0.23845454545454542,0.25940404040404036,0.183
3,6,11,1,11,47.51899999999996,14,197,62,18,34,68,47.76299999999996,12.56599999999999,3.2939999999999974,0.122,15,17,8,1,198,55,11,1,4,0,19,4.75,1,L,0.2412272727272727,0.22847272727272724,0.2994545454545454,0.122
3,6,12,1,7,27.876999999999978,17,121,4,8,2,5,28.181999999999977,0.6709999999999998,8.417999999999994,0.061,19,4,15,1,123,5,31,1,6,1,72,6,1,L,0.22912195121951218,0.13419999999999999,0.27154838709677415,0.061
3,7,13,1,3,23.91199999999998,17,114,29,26,16,22,25.25399999999998,1.7079999999999989,5.428999999999996,2.1349999999999985,20,8,16,11,124,11,25,14,5,0,22,5.5,1,L,0.20366129032258062,0.15527272727272726,0.21715999999999996,0.1525
3,7,14,1,7,8.356999999999994,18,42,3,1,7,5,10.064999999999992,3.2329999999999974,1.7689999999999988,0.6099999999999999,20,12,8,3,50,17,9,3,6,1,72,6,1,L,0.2013,0.19017647058823528,0.1965555555555555,0.20333333333333334
3,8,15,1,7,57.339999999999954,8,237,11,9,5,54,57.400999999999954,0.122,8.661999999999994,1.0369999999999995,9,1,14,7,238,1,33,8,6,0.5,40,5.5,1,L,0.24118067226890755,0.122,0.26248484848484843,0.129625
3,8,16,1,8,20.312999999999985,19,92,98,101,103,22,20.800999999999984,0.061,0.061,6.526999999999995,20,1,1,13,94,1,1,28,2,0.5,18,3,1,L,0.22128723404255318,0.061,0.061,0.23310714285714285
3,9,17,1,7,9.210999999999993,16,48,3,4,10,56,9.271999999999993,5.855999999999995,0.9149999999999996,3.842999999999997,17,14,4,11,49,26,4,16,6,0.5,40,5.5,1,L,0.18922448979591835,0.22523076923076918,0.22875,0.2401875
3,9,18,1,15,17.262999999999987,10,79,20,23,22,104,17.323999999999987,0.427,4.6969999999999965,9.454999999999993,11,1,11,15,80,1,19,46,6,0.5,38,5,1,L,0.21655,0.427,0.24721052631578946,0.20554347826086955
3,10,19,1,12,15.493999999999987,11,81,39,40,38,44,16.835999999999988,0.5489999999999999,2.3179999999999983,2.1959999999999984,15,5,8,8,85,5,9,11,5,1,60,5,1,L,0.1980705882352941,0.1098,0.25755555555555554,0.19963636363636358
3,10,20,1,7,9.576999999999993,13,42,1,5,8,7,9.637999999999993,0.9759999999999995,2.3789999999999982,0.366,14,5,10,2,43,6,14,2,6,1,72,6,1,L,0.2241395348837209,0.16266666666666665,0.16992857142857143,0.183
3,11,21,1,13,76.37200000000138,12,322,118,92,30,8,77.22600000000138,1.8299999999999987,7.380999999999994,9.454999999999993,15,7,14,15,325,9,34,34,2,0,16,4,1,L,0.23761846153846153,0.20333333333333334,0.21708823529411764,0.2780882352941176
3,11,22,1,1,73.9930000000011,13,322,22,79,73,20,75.9450000000011,0.061,2.8669999999999978,1.585999999999999,20,1,8,7,331,1,11,8,3,0,18,4.5,1,L,0.22944108761329304,0.061,0.2606363636363636,0.19824999999999998
4,1,1,1,12,30.316999999999975,15,128,37,46,41,15,33.610999999999976,0.244,1.0369999999999995,2.1959999999999984,20,3,5,8,142,3,5,10,5,0.5,36,5.25,1,L,0.23669718309859153,0.08133333333333333,0.2074,0.2196
4,1,2,1,13,35.379999999999974,15,158,120,112,110,113,36.78299999999997,0.305,1.524999999999999,0.061,20,3,6,1,164,3,8,1,2,1,24,2,1,L,0.22428658536585364,0.10166666666666667,0.190625,0.061
4,2,3,1,15,29.462999999999976,17,132,20,22,23,62,29.523999999999976,1.524999999999999,0.5489999999999999,9.759999999999993,18,4,2,16,133,5,2,42,6,0.5,40,5.5,1,L,0.221984962406015,0.305,0.27449999999999997,0.23238095238095238
4,2,4,1,3,50.01999999999996,12,216,29,31,57,35,52.94799999999996,1.1589999999999994,1.9519999999999986,0.061,20,4,4,1,229,4,4,1,5,0.5,34,4.75,1,L,0.23121397379912662,0.28974999999999995,0.4879999999999999,0.061
4,3,5,1,12,13.968999999999989,14,71,38,40,41,2,15.493999999999987,0.6709999999999998,2.0129999999999986,9.942999999999993,18,3,6,14,75,3,9,43,5,0.5,36,5.25,1,L,0.20658666666666664,0.22366666666666665,0.22366666666666665,0.23123255813953486
4,3,6,1,15,29.401999999999976,19,137,18,17,24,21,29.584999999999976,3.2329999999999974,1.9519999999999986,1.2809999999999993,20,11,7,5,139,17,7,7,6,1,72,6,1,L,0.212841726618705,0.19017647058823528,0.27885714285714286,0.18299999999999997
4,4,7,1,15,38.36899999999997,15,159,24,22,21,51,38.73499999999997,1.4029999999999991,1.8299999999999987,2.561999999999998,18,5,9,9,162,6,9,11,6,0.5,40,5.5,1,L,0.23910493827160492,0.23383333333333334,0.20333333333333334,0.2329090909090909
4,4,8,1,7,11.345999999999991,18,66,3,1,11,8,12.26099999999999,4.025999999999997,0.061,1.2809999999999993,20,13,1,5,73,18,1,5,6,1,72,6,1,L,0.16795890410958902,0.22366666666666662,0.061,0.2562
4,5,9,1,12,45.871999999999964,13,181,48,38,41,4,47.33599999999996,0.6709999999999998,2.805999999999998,29.950999999999976,17,3,8,17,186,3,10,133,5,0.5,36,5.25,1,L,0.25449462365591397,0.22366666666666665,0.28059999999999985,0.2251954887218045
4,5,10,1,15,29.767999999999976,17,143,24,15,80,78,30.438999999999975,2.439999999999998,3.2329999999999974,3.842999999999997,20,6,8,10,146,7,9,19,6,0,18,4.5,1,L,0.20848630136986301,0.34857142857142853,0.35922222222222217,0.20226315789473684
4,6,11,1,2,74.17600000000112,15,350,54,58,52,16,76.67700000000113,0.183,4.635999999999997,9.576999999999993,20,1,13,17,362,1,20,55,4,0.5,30,4.5,1,L,0.21181491712707182,0.183,0.23179999999999998,0.17412727272727271
4,6,12,1,3,19.031999999999986,15,77,28,27,10,91,19.214999999999986,1.2809999999999993,9.149999999999993,17.140999999999988,17,4,14,16,79,4,39,70,5,0,19,4.75,1,L,0.2432278481012658,0.3202499999999999,0.2346153846153846,0.24487142857142855
4,7,13,1,12,13.846999999999989,19,71,46,40,54,48,14.212999999999989,8.234999999999994,1.463999999999999,0.122,20,10,6,1,73,23,9,1,5,0.5,34,4.75,1,L,0.1946986301369863,0.3580434782608695,0.16266666666666665,0.122
4,7,14,1,7,96.38000000000369,13,378,36,9,8,1,98.21000000000369,0.183,2.9889999999999977,5.367999999999996,19,1,10,13,385,1,16,25,6,0.5,41,5.75,1,L,0.25509090909090903,0.183,0.1868125,0.21472
4,8,15,1,2,51.11799999999996,15,235,50,53,41,59,51.91099999999996,0.183,16.16499999999999,0.122,19,2,18,1,239,2,87,1,4,0.5,29,4.25,1,L,0.21720083682008365,0.0915,0.1858045977011494,0.122
4,8,16,1,8,44.956999999999965,13,212,108,7,8,11,47.57999999999996,9.088999999999993,15.188999999999988,0.7319999999999998,20,14,17,2,227,40,60,2,2,0.5,38,5,1,L,0.20960352422907488,0.22722499999999995,0.25315,0.366
4,9,17,1,14,20.922999999999984,15,86,85,92,91,25,22.874999999999982,1.9519999999999986,2.8669999999999978,0.6709999999999998,20,7,11,3,91,7,18,3,3,0.5,23,3.5,1,L,0.25137362637362637,0.2788571428571428,0.15927777777777777,0.22366666666666665
4,9,18,1,12,41.35799999999997,16,176,48,45,39,7,42.57799999999997,1.8299999999999987,1.0369999999999995,3.1109999999999975,20,7,6,6,180,7,7,9,5,0.5,36,5.25,1,L,0.23654444444444442,0.2614285714285714,0.14814285714285713,0.3456666666666666
4,10,19,1,12,61.54899999999995,13,282,43,47,44,53,69.17399999999995,0.061,2.1349999999999985,2.3789999999999982,20,1,9,7,315,1,11,11,5,0.5,34,4.75,1,L,0.2196,0.061,0.1940909090909091,0.21627272727272726
4,10,20,1,11,33.976999999999975,14,165,69,72,67,13,35.440999999999974,5.916999999999995,0.9149999999999996,1.8909999999999987,20,15,4,7,174,23,4,9,4,0.5,30,4.5,1,L,0.203683908045977,0.2572608695652173,0.22874999999999995,0.2101111111111111
4,11,21,1,11,34.647999999999975,16,157,67,72,71,68,35.806999999999974,0.8539999999999996,0.244,2.744999999999998,20,5,1,8,161,5,1,12,4,1,48,4,1,L,0.2224037267080745,0.1708,0.244,0.22874999999999998
4,11,22,1,7,13.41999999999999,17,71,1,12,88,89,13.48099999999999,5.7339999999999955,4.6969999999999965,10.369999999999992,18,13,9,15,72,26,16,53,6,0,18,4.5,1,L,0.1872361111111111,0.22053846153846152,0.29356249999999995,0.19566037735849057
5,1,1,1,7,70.02800000000065,10,298,9,3,1,88,70.45500000000065,0.8539999999999996,7.624999999999994,0.488,12,4,14,4,300,4,35,4,6,0.5,39,5.25,1,L,0.23484999999999998,0.2135,0.21785714285714283,0.122
5,1,2,1,11,16.774999999999988,19,76,66,64,68,14,17.140999999999988,1.7689999999999988,2.744999999999998,13.907999999999989,20,7,9,16,79,9,14,76,4,0.5,30,4.5,1,L,0.21697468354430377,0.19655555555555554,0.19607142857142856,0.183
5,2,3,1,15,79.42200000000173,16,314,20,21,24,16,80.76400000000173,1.2809999999999993,0.061,19.397999999999985,20,8,1,16,318,10,1,87,6,1,72,6,1,L,0.2539748427672956,0.1281,0.061,0.22296551724137928
5,2,4,1,12,28.242999999999977,20,125,47,41,40,8,28.425999999999977,2.3179999999999983,3.2939999999999974,9.820999999999993,20,8,7,16,126,10,15,41,5,0.5,36,5.25,1,L,0.22560317460317458,0.2318,0.2196,0.23953658536585362
5,3,5,1,11,74.17600000000112,9,288,3,8,1,37,74.78600000000112,7.8689999999999936,13.17599999999999,0.305,10,14,16,2,289,35,47,2,4,0.5,41,5.75,1,L,0.25877508650519027,0.2248285714285714,0.28034042553191485,0.1525
5,3,6,1,15,16.469999999999988,18,85,13,16,24,60,16.530999999999988,2.744999999999998,4.818999999999996,10.369999999999992,19,8,15,13,86,13,25,43,6,0.5,40,5.5,1,L,0.19222093023255812,0.21115384615384614,0.19276,0.2411627906976744
5,4,7,1,15,11.223999999999991,15,52,16,21,13,15,12.56599999999999,2.1349999999999985,3.3549999999999973,2.3179999999999983,20,10,9,6,62,10,16,7,6,1,72,6,1,L,0.20267741935483868,0.2135,0.20968749999999997,0.33114285714285707
5,4,8,1,7,10.796999999999992,16,54,7,10,5,12,13.05399999999999,0.7929999999999997,1.1589999999999994,0.061,20,4,2,1,66,4,2,1,6,1,72,6,1,L,0.1977878787878788,0.19824999999999998,0.5794999999999997,0.061
5,5,9,1,11,10.003999999999992,16,52,67,20,119,118,11.162999999999991,31.841999999999974,1.585999999999999,2.500999999999998,20,19,5,8,57,149,5,10,4,0,14,3.5,1,L,0.1958421052631579,0.21370469798657715,0.3171999999999999,0.2501
5,5,10,1,7,13.29799999999999,18,71,8,3,7,92,15.981999999999987,3.720999999999997,2.0129999999999986,47.33599999999996,20,11,8,16,85,21,9,202,6,0.5,39,5.25,1,L,0.1880235294117647,0.17719047619047618,0.22366666666666665,0.23433663366336632
5,6,11,1,3,18.238999999999987,19,86,26,35,49,87,18.299999999999986,2.439999999999998,16.957999999999988,8.844999999999994,20,10,17,14,87,12,76,30,5,0,17,4.25,1,L,0.21034482758620687,0.20333333333333328,0.2231315789473684,0.2948333333333333
5,6,12,1,12,20.861999999999984,16,92,5,46,48,42,86.86400000000016,1.2199999999999993,0.183,0.305,20,6,2,3,345,7,2,3,5,0.5,36,5.25,1,L,0.2517797101449275,0.1742857142857143,0.0915,0.10166666666666667
5,7,13,1,3,21.532999999999983,20,118,25,28,2,83,23.057999999999982,0.488,3.720999999999997,2.9279999999999977,20,3,7,7,123,4,14,8,5,0,19,4.75,1,L,0.18746341463414634,0.122,0.2657857142857143,0.3659999999999999
5,7,14,1,15,39.03999999999997,14,151,15,16,24,38,39.10099999999997,3.1109999999999975,7.624999999999994,13.846999999999989,15,9,15,14,152,13,31,53,6,0.5,41,5.75,1,L,0.25724342105263154,0.23930769230769228,0.24596774193548385,0.2612641509433962
5,8,15,1,11,20.739999999999984,14,80,63,68,70,69,21.044999999999984,0.6709999999999998,0.061,11.589999999999991,16,4,1,15,82,4,1,46,4,1,48,4,1,L,0.2566463414634146,0.16775,0.061,0.2519565217391304
5,8,16,1,3,47.76299999999996,18,202,34,32,35,75,48.31199999999996,0.061,2.3179999999999983,3.659999999999997,20,1,9,12,205,1,11,18,5,0.5,33,4.5,1,L,0.2356682926829268,0.061,0.21072727272727274,0.20333333333333334
5,9,17,1,12,104.00500000000457,15,434,80,60,43,39,107.29900000000457,0.9759999999999995,0.122,0.061,20,4,1,1,444,4,1,1,5,0,17,4.25,1,L,0.24166441441441439,0.244,0.122,0.061
5,9,18,1,11,53.74099999999996,17,223,62,61,112,4,56.180999999999955,3.1719999999999975,7.624999999999994,6.648999999999995,20,12,15,14,237,18,33,28,4,0,16,4,1,L,0.2370506329113924,0.1762222222222222,0.23106060606060605,0.23746428571428568
5,10,19,1,15,21.105999999999984,16,113,20,24,47,84,21.166999999999984,12.26099999999999,1.3419999999999992,5.550999999999996,17,17,4,10,114,51,5,19,6,0,20,5,1,L,0.18567543859649122,0.24041176470588232,0.26839999999999997,0.29215789473684206
5,10,20,1,14,78.81200000000166,15,317,98,4,55,32,90.34100000000166,52.09399999999996,0.6709999999999998,50.87399999999996,20,18,2,14,355,199,2,195,3,0,17,4.25,1,L,0.25448169014084504,0.2617788944723618,0.3354999999999999,0.26089230769230765
6,1,1,1,7,25.19299999999998,17,116,2,7,5,12,25.31499999999998,0.183,1.4029999999999991,5.489999999999996,18,2,6,15,117,2,6,20,6,1,72,6,1,L,0.21636752136752135,0.0915,0.23383333333333328,0.27449999999999997
6,1,2,1,12,68.68600000000049,12,286,47,38,40,20,69.90600000000049,0.183,7.380999999999994,4.940999999999996,18,2,17,9,293,2,35,13,5,0.5,36,5.25,1,L,0.23858703071672352,0.0915,0.21088571428571426,0.380076923076923
6,2,3,1,7,23.54599999999998,18,127,6,3,7,30,23.60699999999998,0.6099999999999999,4.513999999999997,10.247999999999992,19,2,12,14,128,2,18,41,6,0.5,41,5.75,1,L,0.1844296875,0.30499999999999994,0.2507777777777777,0.2499512195121951
6,2,4,1,12,36.72199999999997,13,150,45,41,39,13,37.08799999999997,0.9149999999999996,2.439999999999998,4.147999999999997,14,3,5,10,151,4,6,19,5,0.5,36,5.25,1,L,0.24561589403973508,0.22874999999999995,0.40666666666666657,0.21831578947368419
6,3,5,1,7,10.735999999999992,17,67,1,2,12,41,10.857999999999992,2.2569999999999983,3.0499999999999976,43.980999999999966,19,6,11,16,69,6,18,175,6,0.5,41,5.75,1,L,0.15736231884057972,0.37616666666666654,0.16944444444444443,0.25132
6,3,6,1,14,29.889999999999976,19,141,94,88,89,86,30.865999999999975,0.122,0.366,2.3789999999999982,20,2,2,7,146,2,2,12,3,1,36,3,1,L,0.21141095890410957,0.061,0.183,0.19824999999999998
6,4,7,1,7,46.176999999999964,10,222,8,1,10,46,47.39699999999996,1.9519999999999986,2.0129999999999986,3.9649999999999967,15,10,8,12,227,11,12,24,6,0.5,41,5.75,1,L,0.2087973568281938,0.17745454545454545,0.16775,0.16520833333333332
6,4,8,1,15,11.589999999999991,16,65,15,13,17,18,11.650999999999991,0.9149999999999996,1.524999999999999,6.648999999999995,17,5,5,15,66,6,5,35,6,1,72,6,1,L,0.17653030303030304,0.1525,0.305,0.18997142857142857
6,5,9,1,12,19.031999999999986,19,89,48,45,43,47,19.336999999999986,1.3419999999999992,1.646999999999999,4.391999999999997,20,7,7,13,91,9,9,18,5,1,60,5,1,L,0.2124945054945055,0.1491111111111111,0.183,0.244
6,5,10,1,14,18.848999999999986,16,95,1,86,94,105,1061.9490000002056,1.1589999999999994,0.061,0.9759999999999995,20,6,1,4,4324,8,1,6,3,0,14,3.5,1,L,0.24559412580943568,0.144875,0.061,0.16266666666666665
6,6,11,1,13,64.35499999999999,12,262,117,115,42,76,66.18499999999999,0.122,7.014999999999994,0.7929999999999997,18,1,15,3,269,1,29,3,2,0,12,3,1,L,0.24604089219330852,0.122,0.2418965517241379,0.2643333333333333
6,6,12,1,2,45.017999999999965,13,196,59,49,55,5,45.444999999999965,0.122,0.244,8.905999999999993,17,2,2,14,200,2,2,38,4,0.5,30,4.5,1,L,0.22722499999999998,0.061,0.122,0.23436842105263156
6,7,13,1,1,54.716999999999956,8,218,84,81,49,33,57.461999999999954,1.0979999999999994,4.818999999999996,0.122,14,5,13,2,228,7,24,2,3,0,15,3.75,1,L,0.25202631578947365,0.15685714285714283,0.20079166666666665,0.061
6,7,14,1,12,35.074999999999974,15,156,15,37,115,42,47.09199999999996,3.842999999999997,0.8539999999999996,1.0369999999999995,20,10,2,3,197,14,2,3,5,0,18,4.5,1,L,0.2390456852791878,0.27449999999999997,0.427,0.3456666666666666
7,1,1,1,14,16.469999999999988,14,73,85,93,90,67,17.201999999999988,0.122,0.9759999999999995,3.659999999999997,17,2,5,7,76,2,5,8,3,0.5,22,3.25,1,L,0.22634210526315787,0.061,0.19519999999999998,0.45749999999999985
7,1,2,1,2,31.475999999999974,11,129,58,50,60,51,31.597999999999974,0.7929999999999997,1.2809999999999993,1.2199999999999993,12,5,4,4,130,5,4,4,4,1,48,4,1,L,0.24306153846153844,0.1586,0.32025,0.305
7,2,3,1,2,54.411999999999956,19,224,49,51,28,24,54.777999999999956,0.366,7.136999999999994,1.7079999999999989,20,2,15,4,226,2,26,5,4,0,19,4.75,1,L,0.2423805309734513,0.183,0.27449999999999997,0.34159999999999996
7,2,4,1,12,32.39099999999998,16,175,37,82,1,12,32.75699999999998,13.05399999999999,2.500999999999998,6.343999999999995,20,17,9,10,179,55,11,24,5,0,20,5,1,L,0.183,0.23734545454545453,0.22736363636363632,0.2643333333333333
7,3,5,1,3,20.373999999999985,16,89,26,28,25,4,20.983999999999984,0.122,0.427,9.820999999999993,19,1,2,13,92,1,3,35,5,0.5,36,5.25,1,L,0.2280869565217391,0.122,0.14233333333333334,0.28059999999999996
7,3,6,1,14,29.035999999999976,20,131,91,87,85,19,29.584999999999976,0.061,8.844999999999994,3.598999999999997,20,1,14,12,134,1,32,16,3,0.5,24,3.75,1,L,0.22078358208955223,0.061,0.27640624999999996,0.22493749999999998
7,4,7,1,7,12.56599999999999,16,59,10,6,102,100,14.151999999999989,0.061,1.7689999999999988,2.439999999999998,20,1,7,6,64,1,9,9,6,0,16,4,1,L,0.221125,0.061,0.19655555555555554,0.271111111111111
7,4,8,1,2,28.059999999999977,18,121,23,58,38,50,59.04799999999995,0.366,0.427,0.061,20,2,1,1,241,2,1,1,4,0,19,4.75,1,L,0.24501244813278006,0.183,0.427,0.061
7,5,9,1,2,62.40299999999995,15,276,59,56,49,12,62.58599999999995,0.6099999999999999,2.744999999999998,2.3179999999999983,17,2,8,10,278,2,13,14,4,0.5,30,4.5,1,L,0.2251294964028777,0.305,0.21115384615384614,0.16557142857142856
7,5,10,1,11,25.86399999999998,17,120,66,69,99,105,26.29099999999998,1.7079999999999989,11.162999999999991,2.1349999999999985,18,4,16,9,121,4,40,10,4,0,12,3,1,L,0.21728099173553717,0.4269999999999998,0.27907499999999996,0.2135
7,6,11,1,12,45.566999999999965,15,199,18,44,37,19,94.30599999999993,0.122,1.4029999999999991,0.9759999999999995,20,1,5,6,396,1,6,8,5,0,22,5.5,1,L,0.23814646464646463,0.122,0.2338333333333333,0.122
7,6,12,1,13,27.02299999999998,20,129,120,119,114,65,27.449999999999978,3.781999999999997,0.427,0.366,20,9,2,3,132,14,2,3,2,0.5,16,2.5,1,L,0.20795454545454545,0.27014285714285713,0.2135,0.122
7,7,13,1,2,24.70499999999998,20,108,7,59,53,1,29.767999999999976,0.061,1.0369999999999995,13.968999999999989,20,1,6,15,130,1,6,53,4,0,20,5,1,L,0.22898461538461537,0.061,0.17283333333333334,0.263566037735849
7,7,14,1,12,48.12899999999996,15,224,40,37,97,23,48.37299999999996,3.0499999999999976,7.624999999999994,16.04299999999999,18,6,16,15,227,7,39,72,5,0,18,4.5,1,L,0.21309691629955946,0.43571428571428567,0.1955128205128205,0.22281944444444443
7,8,15,1,1,21.105999999999984,20,102,79,80,76,81,21.288999999999984,0.305,0.488,1.9519999999999986,20,3,3,5,103,3,3,6,3,1,36,3,1,L,0.2066893203883495,0.10166666666666667,0.16266666666666665,0.3253333333333333
7,8,16,1,7,29.462999999999976,13,119,4,12,3,6,29.645999999999976,1.8299999999999987,0.9149999999999996,9.271999999999993,15,7,3,15,121,8,3,33,6,1,72,6,1,L,0.24500826446280988,0.22875,0.305,0.2809696969696969
7,9,17,1,15,72.83400000000097,9,267,20,21,108,33,74.96900000000097,2.3789999999999982,2.439999999999998,6.587999999999995,15,8,9,11,275,11,10,33,6,0,19,4.75,1,L,0.27261454545454544,0.21627272727272726,0.244,0.1996363636363636
7,9,18,1,11,33.854999999999976,10,144,68,10,65,43,36.84399999999997,19.702999999999985,2.0129999999999986,0.6709999999999998,19,19,11,3,154,84,12,4,4,0,19,4.75,1,L,0.23924675324675324,0.23455952380952377,0.16775,0.16775
7,10,19,1,3,87.7790000000027,14,359,119,68,29,62,91.92700000000269,4.330999999999997,0.9149999999999996,0.7929999999999997,20,10,4,3,370,16,4,3,5,0,15,3.75,1,L,0.24845135135135132,0.27068749999999997,0.22875,0.2643333333333333
7,10,20,1,8,86.01000000000249,11,354,108,106,99,92,86.8030000000025,2.1349999999999985,5.367999999999996,0.427,15,9,12,2,358,11,23,3,2,0.5,15,2.25,1,L,0.24246648044692734,0.19409090909090906,0.23339130434782607,0.14233333333333334
8,1,1,1,12,18.421999999999986,17,88,37,56,94,96,20.983999999999984,24.39999999999998,0.244,13.663999999999989,20,18,2,16,100,107,2,58,5,0,15,3.75,1,L,0.20983999999999997,0.22803738317757008,0.122,0.2355862068965517
8,1,2,1,15,23.60699999999998,19,112,15,20,21,24,26.83999999999998,0.244,0.7319999999999998,5.306999999999996,20,2,4,15,127,2,4,24,6,1,72,6,1,L,0.21133858267716535,0.122,0.183,0.221125
8,2,3,1,13,37.81999999999997,15,180,51,111,113,120,76.00599999999994,1.646999999999999,0.366,2.3789999999999982,20,7,2,8,332,7,2,12,2,0.5,16,2.5,1,L,0.22893373493975902,0.23528571428571426,0.183,0.19824999999999998
8,2,4,1,12,29.828999999999976,19,146,38,43,40,16,31.048999999999975,1.0979999999999994,1.2199999999999993,24.46099999999998,20,5,3,17,155,7,3,107,5,0.5,36,5.25,1,L,0.20031612903225804,0.15685714285714283,0.4066666666666665,0.22860747663551398
8,3,5,1,11,57.095999999999954,17,256,61,63,65,71,59.35299999999995,0.6709999999999998,4.330999999999997,0.488,20,3,10,4,268,3,14,6,4,1,48,4,1,L,0.22146641791044774,0.22366666666666665,0.3093571428571428,0.08133333333333333
8,3,6,1,2,64.59900000000002,17,279,59,53,49,85,67.28300000000002,1.1589999999999994,4.269999999999997,3.659999999999997,20,6,11,7,294,6,13,15,4,0.5,27,3.75,1,L,0.22885374149659862,0.19316666666666665,0.3284615384615384,0.244
8,4,7,1,7,51.05699999999996,11,228,6,4,1,12,54.35099999999996,0.5489999999999999,10.247999999999992,0.7319999999999998,20,4,16,4,239,4,36,6,6,1,72,6,1,L,0.22741004184100416,0.13724999999999998,0.2846666666666666,0.122
8,4,8,1,13,15.493999999999987,17,92,113,116,112,117,15.981999999999987,0.183,1.463999999999999,0.9759999999999995,19,1,6,4,94,1,7,4,2,1,24,2,1,L,0.17002127659574467,0.183,0.20914285714285713,0.244
8,5,9,1,12,80.21500000000182,11,341,39,11,8,60,81.61800000000183,3.0499999999999976,23.240999999999982,2.439999999999998,17,7,17,8,348,11,91,12,5,0,21,5.25,1,L,0.23453448275862065,0.2772727272727272,0.2553956043956044,0.20333333333333334
8,5,10,1,3,27.876999999999978,19,130,32,29,26,27,29.584999999999976,0.6099999999999999,0.305,0.6099999999999999,20,6,3,3,136,7,3,3,5,1,60,5,1,L,0.21753676470588235,0.08714285714285715,0.10166666666666667,0.20333333333333334
8,6,11,1,11,39.95499999999997,16,174,72,65,63,73,44.590999999999966,0.366,0.6709999999999998,4.940999999999996,20,2,3,15,193,2,3,26,4,0.5,27,3.75,1,L,0.23104145077720206,0.183,0.22366666666666665,0.19003846153846152
8,6,12,1,12,11.89499999999999,18,56,39,46,45,48,12.74899999999999,0.122,0.6709999999999998,3.842999999999997,20,1,2,8,61,1,2,11,5,1,60,5,1,L,0.20899999999999996,0.122,0.3355,0.34936363636363627
8,7,13,1,3,26.35199999999998,16,127,26,32,27,65,26.77899999999998,0.122,3.659999999999997,4.574999999999997,19,1,10,12,131,1,15,20,5,0.5,34,4.75,1,L,0.20441984732824425,0.122,0.244,0.22874999999999995
8,7,14,1,8,28.669999999999977,20,122,105,99,106,102,30.499999999999975,1.0369999999999995,2.744999999999998,1.0369999999999995,20,4,7,6,132,4,8,6,2,1,24,2,1,L,0.23106060606060605,0.2592499999999999,0.3431249999999999,0.17283333333333334
8,8,15,1,11,38.00299999999997,15,180,64,68,67,25,38.30799999999997,1.524999999999999,1.9519999999999986,7.8689999999999936,16,5,6,13,181,5,10,29,4,0.5,29,4.25,1,L,0.211646408839779,0.30499999999999994,0.19519999999999998,0.27134482758620687
8,8,16,1,2,22.020999999999983,14,88,57,59,49,52,24.33899999999998,0.427,0.061,1.524999999999999,20,1,1,7,99,1,1,8,4,1,48,4,1,L,0.24584848484848482,0.427,0.061,0.190625
8,9,17,1,15,20.739999999999984,13,96,24,34,25,16,28.97499999999998,13.23699999999999,2.439999999999998,0.427,20,18,12,2,133,51,15,2,6,0,22,5.5,1,L,0.21785714285714283,0.2595490196078431,0.16266666666666665,0.2135
8,9,18,1,7,18.116999999999987,16,89,8,1,3,47,18.177999999999987,5.672999999999996,1.8909999999999987,3.1719999999999975,17,10,8,9,90,18,10,11,6,0.5,41,5.75,1,L,0.20197777777777776,0.31516666666666665,0.1891,0.2883636363636363
8,10,19,1,13,48.43399999999996,11,209,118,112,4,119,48.55599999999996,0.6099999999999999,9.881999999999993,1.3419999999999992,12,4,15,8,210,4,40,9,2,0.5,18,3,1,L,0.2312190476190476,0.1525,0.24705,0.1491111111111111
8,10,20,1,8,65.94100000000017,14,271,99,100,17,97,66.73400000000018,1.524999999999999,3.1719999999999975,5.916999999999995,19,6,12,12,276,10,16,23,2,0.5,18,3,1,L,0.24178985507246376,0.1525,0.19824999999999998,0.2572608695652174
8,11,21,1,1,34.647999999999975,20,168,5,8,9,81,54.960999999999956,4.818999999999996,1.646999999999999,0.061,20,14,5,1,263,20,5,1,3,0.5,39,5.25,1,L,0.20897718631178705,0.24094999999999997,0.32939999999999997,0.061
8,11,22,1,15,39.16199999999997,13,183,18,46,41,21,39.22299999999997,23.179999999999982,0.122,0.7319999999999998,14,17,1,3,184,88,1,4,6,0,22,5.5,1,L,0.21316847826086954,0.26340909090909087,0.122,0.183
9,1,1,1,7,15.615999999999987,13,85,2,9,12,11,15.798999999999987,0.305,0.061,8.234999999999994,14,2,1,13,86,2,1,35,6,1,72,6,1,L,0.1837093023255814,0.1525,0.061,0.23528571428571426
9,1,2,1,11,62.15899999999995,12,257,17,62,32,13,65.45299999999995,0.122,6.160999999999995,9.515999999999993,20,1,12,16,274,1,20,40,4,0,21,5.25,1,L,0.2388795620437956,0.122,0.30804999999999993,0.23789999999999997
9,2,3,1,15,20.495999999999984,20,102,13,14,21,63,21.532999999999983,0.061,0.488,4.330999999999997,20,1,2,8,106,1,2,18,6,0.5,40,5.5,1,L,0.20314150943396225,0.061,0.244,0.24061111111111108
9,2,4,1,14,12.01699999999999,19,61,88,90,92,94,12.07799999999999,1.0979999999999994,3.476999999999997,5.245999999999996,20,2,8,12,62,2,11,20,3,1,36,3,1,L,0.19480645161290322,0.5489999999999997,0.31609090909090903,0.2623
9,3,5,1,7,27.266999999999978,13,127,2,3,40,6,27.327999999999978,6.8319999999999945,0.9149999999999996,8.112999999999994,14,13,2,13,128,25,3,32,6,0.5,41,5.75,1,L,0.2135,0.27327999999999997,0.305,0.25353124999999993
9,3,6,1,13,17.628999999999987,17,90,119,117,30,109,18.543999999999986,1.585999999999999,9.393999999999993,0.6099999999999999,19,7,12,2,92,8,39,2,2,0.5,17,2.75,1,L,0.20156521739130434,0.19824999999999998,0.24087179487179486,0.305
9,4,7,1,2,32.02499999999998,13,162,60,56,54,26,32.939999999999976,1.646999999999999,2.0739999999999985,3.781999999999997,17,7,9,10,166,7,12,16,4,0.5,29,4.25,1,L,0.19843373493975902,0.23528571428571426,0.1728333333333333,0.23637499999999995
9,4,8,1,15,21.105999999999984,12,98,13,20,17,24,21.166999999999984,2.683999999999998,2.1349999999999985,0.305,13,9,9,4,99,11,12,4,6,1,72,6,1,L,0.21380808080808078,0.244,0.17791666666666667,0.07625
9,5,9,1,7,10.003999999999992,13,54,1,10,54,56,10.064999999999992,5.550999999999996,4.208999999999997,2.0129999999999986,14,12,13,5,55,22,25,6,6,0,20,5,1,L,0.183,0.2523181818181818,0.16835999999999998,0.3354999999999999
9,5,10,1,1,60.69499999999995,10,240,84,74,75,82,62.64699999999995,0.9759999999999995,2.0739999999999985,2.439999999999998,18,6,10,11,249,6,12,13,3,1,36,3,1,L,0.25159437751004016,0.16266666666666665,0.1728333333333333,0.18769230769230769
9,6,11,1,15,20.007999999999985,17,112,22,14,24,67,20.312999999999985,1.7079999999999989,1.524999999999999,30.743999999999975,18,9,7,16,113,10,8,124,6,0.5,40,5.5,1,L,0.17976106194690264,0.1708,0.19062499999999996,0.24793548387096773
9,6,12,1,1,16.16499999999999,20,69,83,84,57,59,16.957999999999988,3.2939999999999974,3.1719999999999975,15.554999999999987,20,7,11,17,71,10,16,64,3,0,14,3.5,1,L,0.2388450704225352,0.3293999999999999,0.19824999999999998,0.243046875
9,7,13,1,2,46.725999999999964,13,210,26,53,77,58,77.16499999999994,0.9149999999999996,0.305,1.646999999999999,20,5,3,5,337,5,3,7,4,0,16,4,1,L,0.22897626112759642,0.183,0.10166666666666667,0.23528571428571424
9,7,14,1,8,15.615999999999987,16,66,99,104,105,100,17.201999999999988,0.6099999999999999,2.805999999999998,2.1349999999999985,20,5,11,7,75,5,12,7,2,1,24,2,1,L,0.22935999999999998,0.122,0.2338333333333333,0.30499999999999994
9,8,15,1,8,28.242999999999977,17,129,105,100,12,94,28.913999999999977,0.061,10.979999999999992,0.305,19,1,16,2,131,1,50,2,2,0,13,3.25,1,L,0.2207175572519084,0.061,0.2196,0.1525
9,8,16,1,15,15.859999999999987,18,64,15,21,18,24,15.920999999999987,2.2569999999999983,3.2329999999999974,2.439999999999998,19,9,13,10,65,13,19,13,6,1,72,6,1,L,0.24493846153846152,0.17361538461538462,0.1701578947368421,0.18769230769230769
9,9,17,1,8,45.139999999999965,13,216,101,100,55,54,46.176999999999964,7.807999999999994,0.5489999999999999,3.659999999999997,18,16,5,13,221,32,5,20,2,0,12,3,1,L,0.20894570135746604,0.24399999999999997,0.1098,0.183
9,9,18,1,7,8.905999999999993,13,56,1,11,10,7,8.966999999999993,0.244,2.561999999999998,2.2569999999999983,14,2,7,4,57,2,8,7,6,1,72,6,1,L,0.15731578947368421,0.122,0.3202499999999999,0.32242857142857134
9,10,19,1,11,8.173999999999994,18,52,71,64,107,5,8.234999999999994,5.062999999999996,20.739999999999984,14.334999999999988,19,13,18,16,53,23,87,67,4,0,16,4,1,L,0.15537735849056603,0.22013043478260869,0.23839080459770112,0.213955223880597
9,10,20,1,13,57.217999999999954,11,223,111,57,119,53,57.76699999999995,0.244,3.0499999999999976,3.903999999999997,14,1,8,10,226,2,12,18,2,0,12,3,1,L,0.25560619469026546,0.122,0.25416666666666665,0.21688888888888888
9,11,21,1,3,83.93600000000225,11,325,35,28,49,25,85.09500000000226,2.500999999999998,3.3549999999999973,4.7579999999999965,17,9,13,12,333,10,21,33,5,0.5,34,4.75,1,L,0.2555405405405405,0.2501,0.15976190476190474,0.1441818181818182
9,11,22,1,11,21.044999999999984,19,101,69,64,65,61,21.349999999999984,2.2569999999999983,0.366,0.488,20,8,3,2,104,8,3,2,4,1,48,4,1,L,0.20528846153846153,0.282125,0.122,0.244
10,1,1,1,15,20.495999999999984,17,81,19,14,23,24,20.861999999999984,8.966999999999993,0.8539999999999996,1.1589999999999994,18,17,6,7,82,45,7,8,6,1,72,6,1,L,0.2544146341463414,0.19926666666666665,0.122,0.144875
10,1,2,1,7,49.04399999999996,12,227,5,12,8,52,49.83699999999996,0.122,0.061,19.092999999999986,16,2,1,17,231,2,1,76,6,0.5,40,5.5,1,L,0.21574458874458874,0.061,0.061,0.25122368421052627
10,2,3,1,3,70.39400000000069,14,300,27,18,86,15,70.76000000000069,2.0739999999999985,8.966999999999993,0.6709999999999998,17,6,14,2,303,7,39,2,5,0,20,5,1,L,0.2335313531353135,0.29628571428571426,0.2299230769230769,0.3355
10,2,4,1,12,13.785999999999989,19,62,37,40,42,47,15.676999999999987,0.6099999999999999,1.646999999999999,3.1109999999999975,20,3,7,8,72,3,9,14,5,1,60,5,1,L,0.2177361111111111,0.20333333333333334,0.183,0.2222142857142857
10,3,5,1,11,76.06700000000134,10,335,63,67,5,2,77.47000000000135,0.6099999999999999,0.7929999999999997,5.245999999999996,18,3,4,12,344,3,5,18,4,0,20,5,1,L,0.225203488372093,0.20333333333333334,0.1586,0.2914444444444444
10,3,6,1,3,56.241999999999955,16,244,30,33,58,36,56.302999999999955,0.061,3.2939999999999974,2.1349999999999985,17,1,11,9,245,1,17,13,5,0.5,34,4.75,1,L,0.2298081632653061,0.061,0.19376470588235292,0.16423076923076924
10,4,7,1,13,22.081999999999983,20,107,109,114,120,24,23.057999999999982,0.366,0.7319999999999998,2.9889999999999977,20,2,4,9,110,2,4,18,2,0.5,18,3,1,L,0.20961818181818181,0.183,0.183,0.16605555555555554
10,4,8,1,1,43.919999999999966,16,188,76,78,6,29,44.224999999999966,0.9149999999999996,2.3179999999999983,0.7929999999999997,19,6,6,2,191,7,7,2,3,0,17,4.25,1,L,0.23154450261780102,0.1307142857142857,0.33114285714285707,0.39649999999999996
10,5,9,1,2,53.55799999999996,12,225,52,56,49,22,53.98499999999996,0.8539999999999996,2.805999999999998,15.371999999999987,15,4,6,14,229,5,9,56,4,0.5,30,4.5,1,L,0.23574235807860258,0.1708,0.31177777777777776,0.27449999999999997
10,5,10,1,12,15.066999999999988,17,70,40,44,38,48,16.652999999999988,0.244,0.244,1.646999999999999,20,2,2,5,76,2,2,6,5,1,60,5,1,L,0.21911842105263157,0.122,0.122,0.27449999999999997
10,6,11,1,7,15.920999999999987,19,85,3,8,5,89,15.981999999999987,1.1589999999999994,2.561999999999998,20.129999999999985,20,7,11,15,86,7,14,69,6,0.5,39,5.25,1,L,0.18583720930232558,0.16557142857142856,0.18299999999999997,0.29173913043478256
10,6,12,1,1,61.12199999999995,10,258,80,77,82,16,62.40299999999995,0.9149999999999996,0.122,2.561999999999998,14,6,1,9,263,7,1,11,3,0.5,24,3.75,1,L,0.2372737642585551,0.1307142857142857,0.122,0.2329090909090909
10,7,13,1,12,38.00299999999997,8,171,42,43,115,91,42.02899999999997,8.539999999999994,6.465999999999995,1.2809999999999993,19,17,11,5,183,42,24,5,5,0,15,3.75,1,L,0.22966666666666666,0.2033333333333333,0.26941666666666664,0.2562
10,7,14,1,3,78.14100000000158,15,320,52,34,20,22,79.97100000000158,3.1719999999999975,6.648999999999995,2.8669999999999978,20,10,17,13,326,15,28,15,5,0,21,5.25,1,L,0.24530981595092022,0.21146666666666666,0.2374642857142857,0.19113333333333332
10,8,15,1,8,86.31500000000253,13,364,23,99,77,108,89.73100000000252,0.488,0.5489999999999999,0.183,20,4,3,1,374,4,3,1,2,0,13,3.25,1,L,0.2399224598930481,0.122,0.183,0.183
10,8,16,1,13,17.323999999999987,20,78,62,1,5,96,48.37299999999996,61.97599999999995,22.508999999999983,10.735999999999992,20,18,17,14,210,252,86,46,2,0,19,4.75,1,L,0.23034761904761902,0.2459365079365079,0.26173255813953483,0.23339130434782607
10,9,17,1,3,13.54199999999999,19,67,36,32,28,65,13.602999999999989,0.366,0.122,32.57399999999998,20,2,2,17,68,2,2,141,5,0.5,34,4.75,1,L,0.20004411764705882,0.183,0.061,0.23102127659574465
10,9,18,1,12,13.907999999999989,12,52,45,37,40,46,14.883999999999988,1.1589999999999994,0.061,2.9279999999999977,15,4,1,7,55,5,1,9,5,1,60,5,1,L,0.27061818181818176,0.23179999999999995,0.061,0.3253333333333333
10,10,19,1,15,16.22599999999999,17,75,21,13,16,14,17.323999999999987,0.6709999999999998,0.427,2.1349999999999985,20,2,3,5,81,2,3,6,6,1,72,6,1,L,0.21387654320987654,0.3355,0.14233333333333334,0.3558333333333333
10,10,20,1,1,14.151999999999989,17,64,77,81,119,65,14.456999999999988,0.305,27.388999999999978,0.5489999999999999,20,1,18,4,67,2,133,4,3,0,12,3,1,L,0.21577611940298505,0.1525,0.20593233082706766,0.13724999999999998
11,1,1,1,2,69.47900000000058,14,284,54,10,52,26,71.43100000000058,5.550999999999996,2.1349999999999985,2.3789999999999982,20,10,12,7,293,22,14,11,4,0,19,4.75,1,L,0.2437918088737201,0.2523181818181818,0.1525,0.21627272727272726
11,1,2,1,14,20.983999999999984,19,105,91,86,92,87,21.288999999999984,0.7929999999999997,3.2939999999999974,2.439999999999998,20,4,7,7,107,4,10,10,3,1,36,3,1,L,0.1989626168224299,0.19824999999999998,0.3293999999999999,0.24399999999999997
11,2,3,1,2,62.21999999999995,12,271,14,85,23,58,83.20399999999994,2.0739999999999985,0.061,0.244,20,9,1,1,360,9,1,1,4,0,19,4.75,1,L,0.2311222222222222,0.23044444444444442,0.061,0.244
11,2,4,1,12,28.547999999999977,20,120,47,39,37,43,28.974999999999977,1.2199999999999993,5.855999999999995,1.1589999999999994,20,6,12,6,125,9,19,6,5,1,60,5,1,L,0.23179999999999998,0.13555555555555554,0.30821052631578943,0.19316666666666663
11,3,5,1,2,11.406999999999991,12,63,99,102,108,13,45.993999999999964,12.56599999999999,5.306999999999996,13.724999999999989,20,18,13,16,215,53,19,57,4,0.5,18,3,1,L,0.2139255813953488,0.23709433962264148,0.2793157894736842,0.2407894736842105
11,3,6,1,11,59.29199999999995,13,263,72,65,63,61,60.32899999999995,3.4159999999999973,0.488,0.427,18,10,4,3,268,12,5,3,4,1,48,4,1,L,0.22510820895522388,0.2846666666666666,0.09759999999999999,0.14233333333333334
11,4,7,1,14,83.38700000000219,11,364,86,69,93,104,83.4480000000022,6.099999999999995,1.8909999999999987,3.842999999999997,12,16,6,14,365,34,8,18,3,0,12,3,1,L,0.22862465753424654,0.17941176470588235,0.236375,0.21349999999999997
11,4,8,1,2,15.066999999999988,19,78,57,55,50,28,15.249999999999988,0.366,6.465999999999995,17.506999999999987,20,2,11,17,79,2,25,78,4,0.5,29,4.25,1,L,0.1930379746835443,0.183,0.25864,0.22444871794871793
11,5,9,1,3,81.37400000000196,9,351,36,84,72,71,83.50900000000196,8.478999999999994,0.9759999999999995,0.7319999999999998,16,17,4,3,358,42,4,3,5,0,16,4,1,L,0.2332653631284916,0.20188095238095238,0.244,0.244
11,5,10,1,15,17.750999999999987,19,93,13,15,21,53,17.994999999999987,0.122,3.598999999999997,1.646999999999999,20,2,8,5,95,2,14,6,6,0.5,40,5.5,1,L,0.18942105263157893,0.061,0.25707142857142856,0.27449999999999997
11,6,11,1,11,34.281999999999975,20,167,70,96,62,65,35.623999999999974,7.563999999999994,0.183,2.561999999999998,20,16,2,8,174,29,2,10,4,0.5,27,3.75,1,L,0.20473563218390803,0.2608275862068965,0.0915,0.2562
11,6,12,1,2,59.41399999999995,18,254,20,60,55,15,63.50099999999995,1.2199999999999993,0.305,0.061,20,8,2,1,277,10,2,1,4,0,20,5,1,L,0.22924548736462091,0.122,0.1525,0.061
11,7,13,1,8,18.848999999999986,8,81,102,101,97,100,18.970999999999986,1.585999999999999,0.061,1.4029999999999991,9,6,1,5,82,8,1,7,2,1,24,2,1,L,0.23135365853658532,0.19824999999999998,0.061,0.20042857142857143
11,7,14,1,3,17.567999999999987,18,88,30,19,95,36,17.628999999999987,11.95599999999999,0.5489999999999999,0.061,19,17,5,1,89,42,5,1,5,0,19,4.75,1,L,0.19807865168539324,0.2846666666666666,0.1098,0.061
11,8,15,1,2,14.944999999999988,19,81,58,52,59,41,15.188999999999988,0.305,3.2329999999999974,7.624999999999994,20,3,13,10,83,3,18,27,4,0.5,29,4.25,1,L,0.183,0.10166666666666667,0.1796111111111111,0.2824074074074074
11,8,16,1,13,21.959999999999983,20,88,110,111,109,15,22.020999999999983,0.5489999999999999,0.7929999999999997,6.160999999999995,20,2,3,11,89,2,3,24,2,0.5,18,3,1,L,0.24742696629213481,0.27449999999999997,0.26433333333333325,0.2567083333333333
11,9,17,1,12,62.64699999999995,11,287,11,41,51,58,63.25699999999995,1.585999999999999,5.611999999999996,8.844999999999994,13,6,16,13,289,8,28,41,5,0,19,4.75,1,L,0.21888235294117644,0.19824999999999998,0.20042857142857143,0.21573170731707317
11,9,18,1,15,21.410999999999984,14,107,17,16,63,85,21.471999999999984,5.245999999999996,4.452999999999997,0.8539999999999996,15,14,14,5,108,30,25,5,6,0,19,4.75,1,L,0.1988148148148148,0.17486666666666667,0.17812,0.1708
11,10,19,1,15,94.00100000000342,13,396,40,22,24,21,96.01400000000342,0.366,0.061,1.2199999999999993,20,2,1,9,405,2,1,9,6,0.5,41,5.75,1,L,0.2370716049382716,0.183,0.061,0.13555555555555554
11,10,20,1,7,11.650999999999991,18,60,1,4,10,92,11.71199999999999,172.14200000001244,161.89400000001126,0.122,19,18,17,2,61,690,651,2,6,0.5,39,5.25,1,L,0.19199999999999998,0.2494811594202898,0.24868509984639015,0.061
12,1,1,1,12,74.60300000000117,11,304,45,48,44,46,79.17800000000118,1.8299999999999987,0.7929999999999997,0.5489999999999999,20,7,5,3,321,9,8,4,5,1,60,5,1,L,0.24666043613707161,0.20333333333333334,0.09912499999999999,0.13724999999999998
12,1,2,1,13,63.92799999999995,11,272,114,120,33,71,65.51399999999995,0.9759999999999995,4.025999999999997,9.088999999999993,19,2,9,14,280,2,18,41,2,0,13,3.25,1,L,0.2339785714285714,0.488,0.22366666666666665,0.22168292682926827
12,2,3,1,8,50.56899999999996,13,218,102,101,108,23,51.60599999999996,1.9519999999999986,4.635999999999997,0.305,17,4,12,2,223,4,20,2,2,0.5,18,3,1,L,0.23141704035874436,0.4879999999999999,0.23179999999999998,0.1525
12,2,4,1,11,72.71200000000096,11,281,87,111,90,10,75.27400000000095,8.783999999999994,1.2199999999999993,0.183,19,17,9,1,292,40,9,1,4,0,14,3.5,1,L,0.25778767123287666,0.2196,0.13555555555555554,0.183
12,3,5,1,8,26.10799999999998,20,117,104,101,102,99,26.96199999999998,0.183,2.1349999999999985,0.6099999999999999,20,2,11,5,120,2,14,5,2,1,24,2,1,L,0.22468333333333332,0.0915,0.1525,0.122
12,3,6,1,3,35.867999999999974,16,156,27,20,59,90,37.75899999999997,6.465999999999995,17.689999999999987,1.524999999999999,20,12,18,3,166,23,64,3,5,0,18,4.5,1,L,0.22746385542168673,0.2811304347826087,0.27640624999999996,0.5083333333333332
12,4,7,1,1,30.499999999999975,20,153,78,74,18,108,31.902999999999974,1.2199999999999993,4.147999999999997,10.979999999999992,20,5,12,15,160,6,20,40,3,0,14,3.5,1,L,0.19939374999999998,0.20333333333333328,0.2074,0.27449999999999997
12,4,8,1,11,65.75800000000015,11,294,61,68,69,63,65.81900000000016,3.1109999999999975,1.585999999999999,0.6709999999999998,12,9,6,3,295,11,6,3,4,1,48,4,1,L,0.22311525423728812,0.2828181818181818,0.2643333333333333,0.22366666666666665
12,5,9,1,7,15.737999999999987,14,72,10,92,90,12,15.798999999999987,8.539999999999994,4.574999999999997,1.0369999999999995,15,11,11,4,73,34,16,4,6,0,18,4.5,1,L,0.21642465753424656,0.2511764705882353,0.2859375,0.25925
12,5,10,1,1,84.66800000000234,11,346,79,23,75,24,86.55900000000234,0.9149999999999996,4.879999999999996,0.7929999999999997,18,5,13,6,353,5,19,6,3,0,18,4.5,1,L,0.2452096317280453,0.183,0.25684210526315787,0.13216666666666665
12,6,11,1,7,12.50499999999999,19,62,6,2,9,80,13.17599999999999,5.672999999999996,0.8539999999999996,0.366,20,15,3,2,66,33,3,3,6,0.5,39,5.25,1,L,0.1996363636363636,0.1719090909090909,0.2846666666666667,0.122
12,6,12,1,14,60.93899999999995,11,273,88,86,18,113,62.58599999999995,4.025999999999997,4.635999999999997,0.427,15,12,11,2,277,21,14,2,3,0,14,3.5,1,L,0.225942238267148,0.1917142857142857,0.33114285714285707,0.2135
12,7,13,1,1,25.68099999999998,12,107,2,77,79,104,47.09199999999996,0.9149999999999996,2.1959999999999984,0.366,20,3,9,2,190,5,11,2,3,0,14,3.5,1,L,0.24785263157894732,0.183,0.1996363636363636,0.183
12,7,14,1,11,21.410999999999984,20,93,64,25,28,68,22.996999999999982,4.269999999999997,2.1959999999999984,0.244,20,11,6,2,100,15,8,2,4,0,18,4.5,1,L,0.22996999999999998,0.2846666666666666,0.27449999999999997,0.122
12,8,15,1,7,11.95599999999999,17,59,4,1,68,5,14.212999999999989,3.1109999999999975,2.0739999999999985,2.8669999999999978,20,10,10,11,78,13,10,16,6,0.5,40,5.5,1,L,0.18221794871794872,0.23930769230769225,0.2074,0.1791875
12,8,16,1,3,25.61999999999998,19,123,32,36,30,110,25.68099999999998,0.122,2.9279999999999977,6.160999999999995,20,1,8,11,124,1,14,19,5,0.5,32,4.25,1,L,0.2071048387096774,0.122,0.20914285714285713,0.3242631578947368
12,9,17,1,15,24.15599999999998,15,122,14,16,110,15,24.21699999999998,2.1959999999999984,5.7949999999999955,0.5489999999999999,16,6,12,2,123,6,24,2,6,0.5,38,5,1,L,0.1968861788617886,0.3659999999999999,0.24145833333333333,0.27449999999999997
12,9,18,1,11,13.23699999999999,18,59,4,7,34,106,105.89600000000326,5.001999999999996,0.061,0.7929999999999997,20,15,1,3,431,24,1,3,4,0,19,4.75,1,L,0.24569837587006957,0.20841666666666667,0.061,0.26433333333333325
12,10,19,1,15,16.04299999999999,20,78,16,17,59,13,17.384999999999987,4.513999999999997,5.123999999999996,0.5489999999999999,20,11,16,2,82,16,26,2,6,0.5,40,5.5,1,L,0.21201219512195119,0.28212499999999996,0.19707692307692307,0.27449999999999997
12,10,20,1,8,42.57799999999997,16,169,97,100,107,72,43.12699999999997,0.5489999999999999,6.648999999999995,0.427,19,5,14,3,172,5,31,3,2,0.5,16,2.5,1,L,0.25073837209302324,0.1098,0.21448387096774194,0.14233333333333334
13,1,1,1,14,18.787999999999986,12,84,1,95,86,29,111.32500000000323,0.122,1.9519999999999986,0.061,20,2,7,1,475,2,8,1,3,0,17,4.25,1,L,0.23436842105263156,0.061,0.244,0.061
13,1,2,1,2,57.461999999999954,13,229,20,48,21,107,59.16999999999995,11.95599999999999,0.7319999999999998,6.465999999999995,19,15,3,13,235,45,3,24,4,0,19,4.75,1,L,0.25178723404255315,0.26568888888888886,0.244,0.26941666666666664
13,2,3,1,12,15.798999999999987,18,80,92,96,85,2,35.135999999999974,17.567999999999987,0.6099999999999999,5.062999999999996,20,18,3,16,158,76,3,24,5,0.5,24,3.75,1,L,0.222379746835443,0.23115789473684206,0.20333333333333334,0.21095833333333333
13,2,4,1,1,25.86399999999998,20,122,81,82,107,75,26.41299999999998,0.427,0.427,0.061,20,3,1,1,125,3,1,1,3,0.5,20,2.75,1,L,0.211304,0.14233333333333334,0.427,0.061
13,3,5,1,1,83.93600000000225,13,343,6,2,66,81,84.97300000000226,29.401999999999976,6.038999999999995,2.0129999999999986,17,19,15,3,348,113,30,4,3,0,19,4.75,1,L,0.24417528735632182,0.2601946902654867,0.20129999999999998,0.5032499999999998
13,3,6,1,13,9.332999999999993,19,45,54,109,112,119,29.88999999999998,0.305,0.7929999999999997,2.439999999999998,20,2,4,8,131,2,4,8,2,0.5,16,2.5,1,L,0.2281679389312977,0.1525,0.19824999999999998,0.30499999999999994
13,4,7,1,3,51.17899999999996,12,206,31,27,13,15,51.60599999999996,2.9279999999999977,8.966999999999993,7.746999999999994,15,8,14,15,209,10,43,38,5,0,22,5.5,1,L,0.24691866028708132,0.29279999999999995,0.2085348837209302,0.20386842105263156
13,4,8,1,12,65.2700000000001,12,253,38,42,7,9,66.5510000000001,0.183,1.7079999999999989,0.5489999999999999,20,1,6,2,261,1,7,3,5,0,22,5.5,1,L,0.2549846743295019,0.183,0.244,0.183
13,5,9,1,7,21.532999999999983,20,100,12,9,7,111,25.31499999999998,0.6709999999999998,13.41999999999999,18.360999999999986,20,1,17,14,120,1,52,81,6,0.5,38,5,1,L,0.2109583333333333,0.6709999999999998,0.25807692307692304,0.226679012345679
13,5,10,1,15,34.342999999999975,16,174,24,17,55,91,34.891999999999975,0.122,6.648999999999995,7.563999999999994,18,1,13,14,176,1,21,32,6,0,19,4.75,1,L,0.19824999999999998,0.122,0.3166190476190476,0.23637499999999997
13,6,11,1,12,75.45700000000127,17,306,55,52,40,46,78.56800000000128,0.6099999999999999,0.122,1.3419999999999992,20,1,1,5,315,1,1,5,5,0,18,4.5,1,L,0.24942222222222218,0.6099999999999999,0.122,0.2683999999999999
13,6,12,1,8,16.530999999999988,20,72,103,104,98,102,17.872999999999987,0.061,9.454999999999993,1.0369999999999995,20,1,15,4,77,1,39,4,2,1,24,2,1,L,0.2321168831168831,0.061,0.2424358974358974,0.25925
13,7,13,1,14,39.46699999999997,11,165,92,85,94,88,39.83299999999997,0.427,2.500999999999998,0.7929999999999997,14,1,10,5,168,1,11,5,3,1,36,3,1,L,0.23710119047619047,0.427,0.22736363636363635,0.1586
13,7,14,1,3,28.059999999999977,20,133,65,81,66,68,51.72799999999996,3.2329999999999974,3.1719999999999975,0.6709999999999998,20,13,13,4,225,14,15,4,5,0.5,27,3.75,1,L,0.2299022222222222,0.2309285714285714,0.21146666666666664,0.16775
13,8,15,1,11,22.203999999999983,20,116,65,68,89,87,22.874999999999982,2.3179999999999983,4.025999999999997,7.441999999999994,20,8,11,13,119,9,22,28,4,0,14,3.5,1,L,0.1922268907563025,0.25755555555555554,0.183,0.26578571428571424
13,8,16,1,12,20.922999999999984,16,91,58,15,14,42,31.536999999999978,1.1589999999999994,21.105999999999984,0.061,20,4,17,1,132,5,93,1,5,0,21,5.25,1,L,0.23891666666666664,0.23179999999999998,0.22694623655913976,0.061
13,9,17,1,2,23.78999999999998,17,114,53,54,55,15,27.205999999999978,0.061,0.8539999999999996,5.855999999999995,20,1,5,14,127,1,6,24,4,0.5,30,4.5,1,L,0.21422047244094486,0.061,0.14233333333333334,0.24399999999999997
13,9,18,1,12,57.095999999999954,10,232,37,43,41,68,59.96299999999995,0.427,0.305,8.051999999999994,20,2,3,12,244,2,4,29,5,0.5,34,4.75,1,L,0.24574999999999997,0.2135,0.07625,0.27765517241379306
13,10,19,1,7,9.454999999999993,16,45,4,12,116,25,9.515999999999993,3.720999999999997,1.9519999999999986,34.220999999999975,17,9,3,15,46,16,5,127,6,0,19,4.75,1,L,0.2068695652173913,0.2325625,0.39039999999999997,0.2694566929133858
13,10,20,1,12,72.46800000000093,17,314,48,45,43,38,75.21300000000093,0.6709999999999998,0.9149999999999996,1.7689999999999988,20,3,4,7,324,3,4,7,5,1,60,5,1,L,0.23213888888888887,0.22366666666666665,0.22875,0.2527142857142857
14,1,1,1,11,63.25699999999995,11,268,67,61,38,23,65.02599999999995,1.0369999999999995,8.234999999999994,2.9889999999999977,19,4,16,12,279,5,35,15,4,0,19,4.75,1,L,0.2330681003584229,0.2074,0.23528571428571426,0.19926666666666665
14,1,2,1,3,34.037999999999975,16,153,28,1,30,26,47.45799999999996,1.0979999999999994,0.061,2.0739999999999985,20,6,1,9,204,7,1,12,5,0.5,36,5.25,1,L,0.23263725490196077,0.15685714285714286,0.061,0.17283333333333334
14,2,3,1,8,30.133999999999975,17,142,103,108,14,106,31.353999999999974,1.7689999999999988,2.622999999999998,0.122,20,7,6,1,148,9,8,1,2,0.5,18,3,1,L,0.21185135135135133,0.1965555555555555,0.32787499999999997,0.122
14,2,4,1,7,39.83299999999997,14,166,6,5,2,7,39.89399999999997,0.7319999999999998,3.2939999999999974,1.4029999999999991,15,2,8,6,167,3,11,7,6,1,72,6,1,L,0.23888622754491015,0.244,0.2994545454545454,0.20042857142857143
14,3,5,1,13,31.536999999999974,12,159,111,113,117,116,31.719999999999974,5.550999999999996,1.0369999999999995,2.3789999999999982,13,12,8,7,160,23,8,9,2,1,24,2,1,L,0.19824999999999998,0.24134782608695649,0.129625,0.2643333333333333
14,3,6,1,7,23.057999999999982,15,104,9,4,11,103,23.118999999999982,0.8539999999999996,8.173999999999994,1.0369999999999995,16,3,15,6,105,3,34,6,6,0.5,38,5,1,L,0.22018095238095237,0.2846666666666667,0.24041176470588232,0.17283333333333334
14,4,7,1,2,43.736999999999966,11,182,58,56,15,44,45.139999999999965,1.7689999999999988,7.075999999999994,4.635999999999997,16,5,12,16,188,5,22,28,4,0,19,4.75,1,L,0.2401063829787234,0.3537999999999999,0.32163636363636355,0.16557142857142856
14,4,8,1,11,29.645999999999976,10,125,72,64,63,30,32.20799999999998,0.061,5.7949999999999955,12.93199999999999,18,1,15,15,135,1,22,55,4,0.5,29,4.25,1,L,0.23857777777777775,0.061,0.26340909090909087,0.2351272727272727
14,5,9,1,14,45.017999999999965,13,205,93,92,49,96,47.88499999999996,0.6099999999999999,0.6709999999999998,0.122,20,2,1,2,216,2,1,2,3,0.5,22,3.25,1,L,0.22168981481481478,0.305,0.6709999999999998,0.061
14,5,10,1,13,40.38199999999997,18,171,116,119,117,110,41.54099999999997,0.427,0.244,5.428999999999996,20,3,2,13,175,3,2,25,2,1,24,2,1,L,0.23737714285714284,0.14233333333333334,0.122,0.21716
14,6,11,1,7,33.610999999999976,14,151,1,12,10,96,33.671999999999976,3.476999999999997,0.061,0.488,15,7,1,3,152,14,1,3,6,0.5,39,5.25,1,L,0.22152631578947365,0.2483571428571428,0.061,0.16266666666666665
14,6,12,1,3,71.3700000000008,15,291,33,32,28,64,71.55300000000081,2.561999999999998,1.585999999999999,0.427,16,8,7,4,292,9,9,5,5,0.5,34,4.75,1,L,0.24504452054794518,0.2846666666666666,0.17622222222222222,0.0854
14,7,13,1,15,16.530999999999988,13,82,18,74,82,19,16.591999999999988,7.380999999999994,5.7949999999999955,1.0979999999999994,14,14,13,4,83,34,24,4,6,0,18,4.5,1,L,0.1999036144578313,0.21708823529411764,0.2414583333333333,0.27449999999999997
14,7,14,1,11,41.11399999999997,16,174,29,5,87,111,73.01699999999994,26.16899999999998,0.305,1.2199999999999993,20,19,5,5,293,90,5,6,4,0,16,4,1,L,0.24920477815699654,0.2907666666666666,0.061,0.20333333333333334
14,8,15,1,15,15.432999999999987,19,82,15,23,19,17,15.493999999999987,0.7929999999999997,0.8539999999999996,4.513999999999997,20,4,3,10,83,4,3,20,6,1,72,6,1,L,0.18667469879518073,0.19824999999999998,0.2846666666666666,0.22569999999999998
14,8,16,1,7,12.87099999999999,18,58,6,5,51,57,13.968999999999989,0.305,9.881999999999993,0.5489999999999999,20,3,16,2,62,3,42,3,6,0,20,5,1,L,0.22530645161290322,0.10166666666666667,0.23528571428571426,0.183
14,9,17,1,8,10.674999999999992,18,58,99,106,105,101,12.01699999999999,1.4029999999999991,0.122,0.122,20,6,1,1,66,7,1,1,2,1,24,2,1,L,0.18207575757575756,0.20042857142857143,0.122,0.122
14,9,18,1,12,59.53599999999995,13,268,1,44,7,83,68.13699999999994,1.2199999999999993,0.9149999999999996,3.598999999999997,20,3,5,14,296,3,5,18,5,0,20,5,1,L,0.23019256756756754,0.4066666666666666,0.183,0.19994444444444445
14,10,19,1,13,69.47900000000058,9,296,119,113,40,3,69.84500000000058,0.7319999999999998,8.905999999999993,3.9649999999999967,11,5,14,13,298,6,35,19,2,0,15,3.75,1,L,0.23437919463087245,0.122,0.2544571428571428,0.20868421052631578
14,10,20,1,11,16.774999999999988,20,80,70,64,72,74,17.079999999999988,0.8539999999999996,4.879999999999996,1.8299999999999987,20,4,13,7,83,5,19,8,4,0.5,27,3.75,1,L,0.20578313253012046,0.1708,0.25684210526315787,0.22875
14,11,21,1,12,71.12600000000077,12,298,46,41,96,97,71.85800000000077,0.427,14.029999999999989,0.6099999999999999,16,5,18,1,303,5,65,1,5,0,15,3.75,1,L,0.23715511551155113,0.0854,0.21584615384615383,0.6099999999999999
14,11,22,1,3,49.16599999999996,8,192,29,18,110,116,50.75199999999996,14.639999999999988,0.9759999999999995,3.903999999999997,17,17,4,11,202,47,5,16,5,0,15,3.75,1,L,0.2512475247524752,0.3114893617021276,0.19519999999999998,0.244
15,1,1,1,2,21.288999999999984,20,95,52,51,13,14,21.532999999999983,0.9149999999999996,16.530999999999988,4.025999999999997,20,6,18,12,96,6,75,14,4,0,20,5,1,L,0.22430208333333332,0.1525,0.22041333333333332,0.28757142857142853
15,1,2,1,12,65.75800000000015,14,286,38,47,40,66,66.61200000000015,2.0739999999999985,0.427,12.80999999999999,18,11,1,17,292,14,1,56,5,0.5,34,4.75,1,L,0.22812328767123286,0.14814285714285713,0.427,0.22874999999999998
15,2,3,1,3,23.240999999999982,19,108,25,34,30,26,23.362999999999982,1.0369999999999995,3.4159999999999973,0.061,20,6,8,1,109,7,11,1,5,1,60,5,1,L,0.2143394495412844,0.14814285714285713,0.31054545454545446,0.061
15,2,4,1,15,48.67799999999996,16,205,16,20,19,40,48.73899999999996,1.8909999999999987,3.3549999999999973,2.0739999999999985,17,6,10,4,206,6,15,5,6,0.5,41,5.75,1,L,0.23659708737864074,0.3151666666666666,0.22366666666666665,0.41479999999999995
15,3,5,1,3,54.04599999999996,11,235,34,61,70,85,54.10699999999996,13.602999999999989,1.9519999999999986,6.587999999999995,12,16,8,14,236,53,9,31,5,0,16,4,1,L,0.22926694915254234,0.2566603773584905,0.21688888888888888,0.21251612903225806
15,3,6,1,7,16.469999999999988,19,81,2,7,10,51,16.530999999999988,6.221999999999995,1.463999999999999,16.469999999999988,20,10,6,16,82,29,6,60,6,0.5,40,5.5,1,L,0.20159756097560974,0.214551724137931,0.244,0.27449999999999997
15,4,7,1,2,48.92199999999996,14,212,57,12,59,99,50.81299999999996,4.025999999999997,1.8909999999999987,24.82699999999998,20,14,7,16,220,22,9,108,4,0,16,4,1,L,0.2309681818181818,0.183,0.21011111111111108,0.2298796296296296
15,4,8,1,12,24.88799999999998,20,120,47,37,64,46,25.92499999999998,0.183,3.3549999999999973,0.427,20,2,7,2,125,2,8,2,5,0.5,34,4.75,1,L,0.20739999999999997,0.0915,0.41937499999999994,0.2135
15,5,9,1,14,18.543999999999986,19,87,93,91,87,92,19.519999999999985,5.550999999999996,1.0369999999999995,0.9149999999999996,20,14,5,6,94,24,5,6,3,1,36,3,1,L,0.20765957446808508,0.23129166666666665,0.2074,0.1525
15,5,10,1,15,69.54000000000059,11,292,24,21,15,20,70.76000000000059,2.8669999999999978,7.441999999999994,11.406999999999991,16,9,15,14,300,12,35,49,6,1,72,6,1,L,0.23586666666666664,0.2389166666666666,0.21262857142857142,0.23279591836734692
15,6,11,1,14,36.72199999999997,20,159,89,85,92,95,38.49099999999997,0.183,1.9519999999999986,0.183,20,1,6,2,168,1,6,2,3,1,36,3,1,L,0.22911309523809523,0.183,0.3253333333333333,0.0915
15,6,12,1,1,12.80999999999999,20,62,67,73,84,80,27.632999999999978,0.244,0.9759999999999995,0.122,20,2,4,1,121,2,4,1,3,0.5,22,3.25,1,L,0.22837190082644626,0.122,0.244,0.122
15,7,13,1,12,17.201999999999988,9,64,43,44,42,12,19.153999999999986,1.8909999999999987,0.183,1.7079999999999989,16,4,2,7,72,5,2,7,5,0.5,36,5.25,1,L,0.26602777777777775,0.37819999999999987,0.0915,0.244
15,7,14,1,15,11.101999999999991,15,56,14,15,105,21,11.162999999999991,5.001999999999996,1.1589999999999994,0.122,16,13,4,2,57,19,4,2,6,0.5,38,5,1,L,0.1958421052631579,0.2632631578947368,0.28975,0.061
15,8,15,1,11,83.4480000000022,10,361,67,88,85,39,83.7530000000022,4.025999999999997,5.428999999999996,2.0129999999999986,13,11,13,5,364,17,23,7,4,0,15,3.75,1,L,0.2300906593406593,0.23682352941176468,0.23604347826086955,0.2875714285714285
15,8,16,1,1,17.384999999999987,17,76,84,13,15,50,20.312999999999985,34.586999999999975,20.739999999999984,0.305,20,19,15,2,95,160,94,3,3,0,19,4.75,1,L,0.2138210526315789,0.21616875,0.2206382978723404,0.10166666666666667
15,9,17,1,3,12.87099999999999,17,69,76,25,36,51,19.092999999999986,0.366,0.244,6.343999999999995,20,2,3,14,96,2,4,35,5,0,17,4.25,1,L,0.19888541666666665,0.183,0.061,0.18125714285714284
15,9,18,1,11,30.194999999999975,16,147,16,61,41,24,41.35799999999997,1.0369999999999995,1.1589999999999994,2.683999999999998,20,5,6,8,199,5,6,11,4,0,21,5.25,1,L,0.2078291457286432,0.20739999999999997,0.19316666666666665,0.244
15,10,19,1,13,14.883999999999988,20,64,110,111,109,118,15.188999999999988,3.903999999999997,4.818999999999996,0.305,20,12,15,2,67,21,21,2,2,1,24,2,1,L,0.22670149253731342,0.1859047619047619,0.22947619047619047,0.1525
15,10,20,1,8,65.88000000000017,16,282,100,102,21,19,66.91700000000017,1.0979999999999994,1.8299999999999987,5.184999999999996,20,7,6,10,288,7,7,21,2,0,16,4,1,L,0.23235069444444442,0.15685714285714286,0.2614285714285714,0.24690476190476188
15,11,21,1,12,66.97800000000029,15,279,108,13,62,48,73.6270000000003,4.940999999999996,0.488,0.061,20,14,1,1,308,20,1,1,5,0,17,4.25,1,L,0.23904870129870126,0.24705,0.488,0.061
15,11,22,1,13,56.668999999999954,19,255,89,110,118,109,57.82799999999995,1.2199999999999993,0.122,0.061,20,8,1,1,261,9,1,1,2,0.5,15,2.25,1,L,0.2215632183908046,0.13555555555555554,0.122,0.061
16,1,1,1,11,14.944999999999988,18,82,70,71,61,75,17.018999999999988,2.622999999999998,0.305,19.458999999999985,20,7,1,17,92,10,1,84,4,0.5,27,3.75,1,L,0.1849891304347826,0.2623,0.305,0.2316547619047619
16,1,2,1,7,22.935999999999982,20,110,4,7,8,93,23.179999999999982,2.744999999999998,5.672999999999996,0.7319999999999998,20,10,13,3,111,13,27,3,6,0.5,39,5.25,1,L,0.2088288288288288,0.2111538461538461,0.2101111111111111,0.244
16,2,3,1,15,16.16499999999999,19,69,15,22,20,46,16.22599999999999,1.3419999999999992,8.234999999999994,2.3789999999999982,20,4,15,8,70,4,37,10,6,0.5,41,5.75,1,L,0.23179999999999998,0.3354999999999999,0.22256756756756754,0.23789999999999997
16,2,4,1,2,67.34400000000034,10,277,55,58,8,35,69.54000000000033,0.366,3.2329999999999974,2.805999999999998,16,3,10,8,286,3,16,12,4,0,19,4.75,1,L,0.2431468531468531,0.122,0.20206249999999998,0.23383333333333334
16,3,5,1,12,28.913999999999977,18,143,13,39,56,15,54.22899999999996,0.366,0.244,1.4029999999999991,20,3,3,7,271,3,3,7,5,0,21,5.25,1,L,0.2001070110701107,0.122,0.08133333333333333,0.20042857142857143
16,3,6,1,3,52.33799999999996,12,229,32,3,36,33,54.533999999999956,1.585999999999999,1.0979999999999994,1.7079999999999989,19,4,5,6,238,4,5,7,5,0.5,36,5.25,1,L,0.2291344537815126,0.39649999999999996,0.2196,0.244
16,4,7,1,15,26.22999999999998,15,117,22,24,41,53,26.35199999999998,7.9299999999999935,6.526999999999995,4.086999999999997,16,14,16,10,118,29,35,17,6,0,21,5.25,1,L,0.22332203389830507,0.27344827586206893,0.18648571428571428,0.24041176470588232
16,4,8,1,3,82.35000000000207,10,326,30,29,12,7,83.57000000000207,3.9649999999999967,3.781999999999997,4.818999999999996,15,12,8,15,332,14,11,21,5,0,22,5.5,1,L,0.2517168674698795,0.2832142857142857,0.34381818181818175,0.22947619047619044
16,5,9,1,12,19.885999999999985,18,98,40,43,44,47,19.946999999999985,0.5489999999999999,2.683999999999998,0.9759999999999995,19,3,8,5,99,3,12,7,5,1,60,5,1,L,0.20148484848484846,0.183,0.22366666666666665,0.13942857142857143
16,5,10,1,7,24.58299999999998,15,121,1,10,28,11,24.64399999999998,1.0369999999999995,14.273999999999988,4.391999999999997,16,4,16,13,122,4,55,20,6,0.5,41,5.75,1,L,0.20199999999999999,0.2592499999999999,0.2595272727272727,0.2196
16,6,11,1,11,22.935999999999982,17,114,66,70,68,11,23.240999999999982,0.305,2.3789999999999982,1.463999999999999,19,2,8,4,117,2,11,4,4,0.5,30,4.5,1,L,0.19864102564102562,0.1525,0.21627272727272726,0.366
16,6,12,1,2,18.482999999999986,17,87,20,56,59,53,43.675999999999966,0.061,0.061,0.7319999999999998,20,1,1,2,177,1,1,2,4,0.5,30,4.5,1,L,0.24675706214689264,0.061,0.061,0.366
16,7,13,1,13,26.04699999999998,19,112,114,119,110,109,26.77899999999998,0.366,1.0979999999999994,2.683999999999998,20,3,5,7,117,3,5,10,2,1,24,2,1,L,0.22888034188034187,0.122,0.2196,0.26839999999999997
16,7,14,1,1,79.05600000000169,15,317,82,80,46,54,80.5810000000017,1.9519999999999986,2.622999999999998,3.598999999999997,20,5,10,11,329,6,13,15,3,0,15,3.75,1,L,0.24492705167173248,0.3253333333333333,0.20176923076923076,0.2399333333333333
16,8,15,1,1,30.072999999999976,18,142,16,17,73,65,346.6020000000009,134.5660000000081,0.061,0.061,20,19,1,1,1491,531,1,1,3,0,19,4.75,1,L,0.23246277665995974,0.2534199623352165,0.061,0.061
16,8,16,1,3,50.75199999999996,17,208,34,32,30,26,51.05699999999996,2.0739999999999985,0.305,1.3419999999999992,19,6,1,4,210,6,1,4,5,1,60,5,1,L,0.2431285714285714,0.3456666666666666,0.305,0.3355
16,9,17,1,13,50.93499999999996,14,251,41,75,49,42,87.16899999999993,0.366,0.061,0.427,20,3,1,3,418,3,1,4,2,0,17,4.25,1,L,0.20853827751196172,0.122,0.061,0.10675
16,9,18,1,11,30.499999999999975,20,152,4,6,62,61,40.25999999999997,11.101999999999991,0.366,0.5489999999999999,20,16,3,3,202,45,4,3,4,0,20,5,1,L,0.1993069306930693,0.24671111111111108,0.0915,0.183
17,1,1,1,8,64.53800000000001,10,295,100,99,21,24,65.51400000000001,2.0739999999999985,3.903999999999997,1.646999999999999,13,8,12,4,298,10,19,4,2,0,16,4,1,L,0.2198456375838926,0.2074,0.2054736842105263,0.41174999999999995
17,1,2,1,14,24.76599999999998,19,121,95,92,85,41,24.88799999999998,2.1959999999999984,0.9149999999999996,1.2809999999999993,20,6,5,7,123,10,5,7,3,0.5,23,3.5,1,L,0.20234146341463413,0.21959999999999993,0.183,0.183
17,2,3,1,12,31.109999999999975,20,138,41,20,43,42,31.292999999999974,6.221999999999995,0.9149999999999996,2.500999999999998,20,16,4,10,140,33,4,10,5,0.5,36,5.25,1,L,0.22352142857142857,0.18854545454545454,0.22875,0.2501
17,2,4,1,3,29.157999999999976,11,132,36,27,30,32,29.523999999999976,3.1719999999999975,0.061,0.122,15,6,1,1,136,10,1,1,5,1,60,5,1,L,0.21708823529411764,0.3171999999999999,0.061,0.122
17,3,5,1,14,77.28700000000148,14,348,89,90,93,108,80.09300000000148,0.122,3.1109999999999975,0.183,20,2,8,2,361,2,11,2,3,0.5,20,2.75,1,L,0.2218642659279778,0.061,0.2828181818181818,0.0915
17,3,6,1,1,35.318999999999974,18,170,77,84,74,83,35.440999999999974,2.1349999999999985,0.244,4.391999999999997,20,6,2,12,172,8,2,22,3,1,36,3,1,L,0.20605232558139533,0.266875,0.122,0.1996363636363636
17,4,7,1,15,15.249999999999988,16,81,13,57,19,55,15.310999999999988,5.611999999999996,4.025999999999997,4.452999999999997,17,13,11,13,82,27,14,21,6,0,20,5,1,L,0.18671951219512195,0.20785185185185182,0.28757142857142853,0.21204761904761904
17,4,8,1,7,84.05800000000227,13,368,9,5,6,44,88.99900000000227,2.3789999999999982,2.622999999999998,2.9889999999999977,20,8,9,11,384,9,12,16,6,0.5,41,5.75,1,L,0.23176822916666664,0.2643333333333333,0.21858333333333332,0.1868125
17,5,9,1,8,34.769999999999975,18,168,101,108,107,15,35.806999999999974,0.8539999999999996,0.6099999999999999,17.506999999999987,20,4,2,16,173,4,2,58,2,0.5,18,3,1,L,0.20697687861271674,0.21349999999999997,0.305,0.30184482758620684
17,5,10,1,1,24.46099999999998,19,110,1,76,49,38,57.21799999999996,0.061,0.244,0.122,20,1,1,2,257,1,1,2,3,0,18,4.5,1,L,0.22263813229571983,0.061,0.244,0.061
17,6,11,1,13,17.689999999999987,16,94,111,109,110,116,17.750999999999987,0.5489999999999999,2.1959999999999984,1.7689999999999988,17,4,8,9,95,4,8,9,2,1,24,2,1,L,0.18685263157894735,0.13724999999999998,0.27449999999999997,0.19655555555555554
17,6,12,1,12,21.593999999999983,13,95,42,38,43,45,21.654999999999983,1.524999999999999,0.244,0.427,14,9,1,3,96,11,1,3,5,1,60,5,1,L,0.22557291666666665,0.13863636363636364,0.244,0.14233333333333334
17,7,13,1,7,40.99199999999997,12,181,10,73,47,1,45.810999999999964,11.589999999999991,0.183,3.903999999999997,20,18,1,9,195,40,1,13,6,0,20,5,1,L,0.23492820512820511,0.28974999999999995,0.183,0.3003076923076923
17,7,14,1,13,25.68099999999998,19,110,113,111,14,31,26.83999999999998,1.524999999999999,6.160999999999995,8.722999999999994,20,6,9,12,116,6,21,27,2,0,15,3.75,1,L,0.23137931034482756,0.25416666666666665,0.29338095238095235,0.323074074074074
17,8,15,1,7,14.395999999999988,15,80,5,1,11,8,14.761999999999988,0.7319999999999998,0.8539999999999996,0.8539999999999996,17,4,2,3,82,4,2,4,6,1,72,6,1,L,0.18002439024390243,0.183,0.427,0.21349999999999997
17,8,16,1,11,21.593999999999983,19,103,65,64,69,63,23.78999999999998,0.305,0.366,1.8909999999999987,20,1,3,7,111,1,3,10,4,1,48,4,1,L,0.2143243243243243,0.305,0.122,0.1891
17,9,17,1,3,56.119999999999955,17,254,1,25,32,92,70.14999999999995,0.122,0.305,0.122,20,2,2,1,318,2,2,1,5,0,19,4.75,1,L,0.22059748427672954,0.061,0.1525,0.122
17,9,18,1,12,54.28999999999996,13,250,44,48,47,16,54.411999999999956,0.366,3.537999999999997,2.500999999999998,14,2,11,7,251,2,16,10,5,0.5,36,5.25,1,L,0.2167808764940239,0.183,0.221125,0.25009999999999993
17,10,19,1,12,86.80300000000258,12,353,43,45,14,18,89.60900000000258,3.2939999999999974,4.330999999999997,1.1589999999999994,20,9,12,3,366,15,18,4,5,0,22,5.5,1,L,0.24483333333333332,0.2196,0.24061111111111108,0.28975
17,10,20,1,13,61.60999999999995,14,300,86,116,110,114,63.74499999999995,1.2199999999999993,8.112999999999994,1.4029999999999991,20,6,12,5,309,6,23,5,2,0.5,15,2.25,1,L,0.206294498381877,0.20333333333333334,0.35273913043478256,0.2806
17,11,21,1,1,37.69799999999997,16,172,84,80,79,54,37.88099999999997,0.122,0.305,11.040999999999991,17,2,1,15,173,2,1,45,3,0.5,22,3.25,1,L,0.21896531791907511,0.061,0.305,0.24535555555555555
17,11,22,1,15,13.663999999999989,19,73,22,19,20,90,24.27799999999998,4.391999999999997,0.7319999999999998,0.6099999999999999,20,13,4,7,112,22,4,8,6,0.5,39,5.25,1,L,0.21676785714285712,0.1996363636363636,0.183,0.07625
18,1,1,1,1,49.89799999999996,13,230,14,79,55,74,61.12199999999995,3.0499999999999976,0.488,0.6099999999999999,20,14,2,2,268,16,2,2,3,0,16,4,1,L,0.22806716417910447,0.19062499999999996,0.244,0.30499999999999994
18,1,2,1,14,15.798999999999987,19,81,85,92,67,6,16.652999999999988,14.944999999999988,1.0979999999999994,12.80999999999999,20,17,2,15,88,66,3,55,3,0,16,4,1,L,0.18923863636363636,0.2264393939393939,0.36599999999999994,0.2329090909090909
18,2,3,1,2,21.410999999999984,18,115,54,51,53,23,22.447999999999983,1.1589999999999994,1.3419999999999992,7.197999999999994,20,6,6,16,119,7,7,42,4,0.5,30,4.5,1,L,0.18863865546218486,0.16557142857142856,0.1917142857142857,0.17138095238095236
18,2,4,1,13,22.264999999999983,19,102,119,120,72,111,25.31499999999998,3.1109999999999975,9.698999999999993,0.366,20,11,15,4,113,14,42,4,2,0.5,16,2.5,1,L,0.22402654867256636,0.22221428571428567,0.2309285714285714,0.0915
18,3,5,1,14,66.24600000000021,10,288,89,42,45,67,66.30700000000022,10.491999999999992,3.4159999999999973,3.598999999999997,11,16,12,8,289,47,17,11,3,0,17,4.25,1,L,0.22943598615916952,0.22323404255319146,0.2009411764705882,0.32718181818181813
18,3,6,1,2,17.933999999999987,20,93,55,49,97,59,20.861999999999984,0.183,17.384999999999987,1.2199999999999993,20,1,17,4,106,1,85,5,4,0.5,26,3.5,1,L,0.19681132075471697,0.183,0.20452941176470588,0.244
18,4,7,1,14,31.841999999999974,20,142,88,91,92,20,32.14699999999998,0.488,0.183,5.489999999999996,20,3,1,13,144,4,1,24,3,0.5,24,3.75,1,L,0.22324305555555554,0.122,0.183,0.22874999999999998
18,4,8,1,1,70.63800000000072,15,282,78,74,73,58,71.85800000000071,0.7319999999999998,0.183,15.066999999999988,20,3,1,17,289,3,1,66,3,0.5,22,3.25,1,L,0.24864359861591692,0.244,0.183,0.22828787878787876
18,5,9,1,7,23.85099999999998,18,105,1,5,7,64,23.91199999999998,0.6709999999999998,1.1589999999999994,4.147999999999997,19,3,3,11,106,3,5,18,6,0.5,40,5.5,1,L,0.22558490566037734,0.22366666666666665,0.2318,0.23044444444444442
18,5,10,1,13,75.27400000000125,14,319,120,13,15,117,76.43300000000126,5.916999999999995,0.427,0.061,19,15,2,1,324,25,2,1,2,0,16,4,1,L,0.2359043209876543,0.23667999999999997,0.2135,0.061
18,6,11,1,12,28.059999999999977,18,127,43,47,41,42,28.852999999999977,0.6709999999999998,0.366,0.366,20,5,3,3,130,5,3,3,5,1,60,5,1,L,0.22194615384615382,0.13419999999999999,0.122,0.122
18,6,12,1,7,17.445999999999987,16,92,7,11,69,82,17.506999999999987,12.50499999999999,2.622999999999998,0.6099999999999999,17,13,5,5,93,48,7,6,6,0,19,4.75,1,L,0.18824731182795698,0.2605208333333333,0.3747142857142856,0.10166666666666667
18,7,13,1,8,66.00200000000018,13,268,1,4,11,107,84.30200000000016,7.197999999999994,7.441999999999994,0.122,20,15,15,2,345,36,32,2,2,0.5,38,5,1,L,0.24435362318840578,0.19994444444444442,0.23256249999999998,0.061
18,7,14,1,1,20.068999999999985,18,78,79,77,73,69,20.373999999999985,0.244,1.2199999999999993,0.9759999999999995,19,1,6,1,79,2,6,1,3,0.5,22,3.25,1,L,0.25789873417721515,0.122,0.20333333333333334,0.9759999999999995
18,8,15,1,8,15.493999999999987,20,63,108,97,102,71,15.554999999999987,0.244,2.9279999999999977,5.367999999999996,20,1,10,13,64,1,13,24,2,0.5,16,2.5,1,L,0.243046875,0.244,0.2252307692307692,0.22366666666666662
18,8,16,1,2,51.17899999999996,7,208,59,60,57,24,52.21599999999996,0.366,3.1109999999999975,5.672999999999996,13,2,10,11,215,2,12,20,4,0.5,30,4.5,1,L,0.24286511627906973,0.183,0.25925,0.28364999999999996
18,9,17,1,14,30.316999999999975,20,141,95,93,87,70,31.719999999999974,0.183,1.7689999999999988,2.500999999999998,20,2,7,8,150,2,7,13,3,0.5,22,3.25,1,L,0.21146666666666664,0.0915,0.2527142857142857,0.19238461538461538
18,9,18,1,8,29.401999999999976,20,142,98,102,20,99,29.523999999999976,0.183,4.025999999999997,0.122,20,2,11,1,144,2,13,1,2,0.5,18,3,1,L,0.20502777777777775,0.0915,0.30969230769230766,0.122
18,10,19,1,14,12.62699999999999,17,65,88,96,94,91,12.93199999999999,0.061,0.061,0.8539999999999996,19,1,1,4,67,1,1,5,3,1,36,3,1,L,0.19301492537313433,0.061,0.061,0.1708
18,10,20,1,1,14.944999999999988,20,79,73,79,17,13,15.920999999999987,3.0499999999999976,11.040999999999991,0.7929999999999997,20,9,16,5,83,12,52,5,3,0,18,4.5,1,L,0.19181927710843372,0.2541666666666666,0.21232692307692305,0.1586
18,11,21,1,7,90.82900000000305,11,396,5,40,67,9,90.89000000000306,6.587999999999995,2.2569999999999983,5.367999999999996,12,14,5,14,397,33,6,28,6,0,21,5.25,1,L,0.22894206549118384,0.1996363636363636,0.37616666666666654,0.1917142857142857
18,11,22,1,8,29.462999999999976,18,131,105,106,34,35,29.706999999999976,0.6709999999999998,12.44399999999999,0.7319999999999998,19,3,15,3,133,4,51,3,2,0,14,3.5,1,L,0.22336090225563907,0.16775,0.24399999999999997,0.244
19,1,1,1,12,18.421999999999986,10,77,40,41,43,13,18.543999999999986,0.122,2.1349999999999985,5.489999999999996,12,1,7,11,79,1,10,23,5,0.5,36,5.25,1,L,0.23473417721518985,0.122,0.2135,0.23869565217391303
19,1,2,1,3,83.75300000000223,12,353,28,26,29,11,86.98600000000224,6.770999999999995,2.500999999999998,1.8909999999999987,20,17,8,4,371,28,10,4,5,0.5,36,5.25,1,L,0.23446361185983824,0.24182142857142855,0.2501,0.4727499999999999
19,2,3,1,8,15.432999999999987,15,81,107,97,104,103,15.798999999999987,0.061,0.6709999999999998,11.589999999999991,17,1,4,16,83,1,4,57,2,1,24,2,1,L,0.19034939759036143,0.061,0.16775,0.2033333333333333
19,2,4,1,14,39.34499999999997,17,178,89,94,92,14,44.590999999999966,1.0979999999999994,0.5489999999999999,2.439999999999998,20,3,3,10,198,3,3,14,3,0.5,24,3.75,1,L,0.2252070707070707,0.366,0.183,0.17428571428571427
19,3,5,1,1,43.675999999999966,15,190,74,75,78,79,43.797999999999966,2.3789999999999982,0.244,1.1589999999999994,16,8,2,6,191,10,2,6,3,1,36,3,1,L,0.22930890052356018,0.23789999999999997,0.122,0.19316666666666665
19,3,6,1,15,42.02899999999997,10,169,21,19,89,93,42.27299999999997,0.061,11.467999999999991,3.0499999999999976,12,1,16,9,171,1,58,12,6,0,18,4.5,1,L,0.24721052631578944,0.061,0.19772413793103447,0.25416666666666665
19,4,7,1,3,38.91799999999997,17,169,23,35,32,33,39.89399999999997,0.061,0.7319999999999998,1.463999999999999,20,1,2,6,175,1,2,9,5,0.5,36,5.25,1,L,0.22796571428571427,0.061,0.366,0.16266666666666665
19,4,8,1,8,45.749999999999964,15,198,4,65,103,107,92.29299999999992,0.061,0.061,1.4029999999999991,20,1,1,4,406,1,1,4,2,0,14,3.5,1,L,0.22732266009852214,0.061,0.061,0.35074999999999995
19,5,9,1,1,20.495999999999984,18,99,82,3,77,73,22.447999999999983,3.2329999999999974,0.366,2.561999999999998,20,9,3,7,110,11,3,9,3,0.5,24,3.75,1,L,0.20407272727272727,0.29390909090909084,0.122,0.2846666666666666
19,5,10,1,8,61.42699999999995,14,271,106,103,104,17,61.79299999999995,0.6099999999999999,0.244,6.038999999999995,17,4,2,12,274,4,2,22,2,0.5,18,3,1,L,0.22552189781021897,0.1525,0.122,0.27449999999999997
19,6,11,1,13,22.996999999999982,16,124,118,115,11,113,23.42399999999998,0.5489999999999999,1.2809999999999993,1.0369999999999995,20,3,8,7,129,3,9,8,2,0.5,18,3,1,L,0.1815813953488372,0.183,0.14233333333333334,0.129625
19,6,12,1,15,32.02499999999998,12,149,18,48,79,13,32.08599999999998,5.7949999999999955,5.916999999999995,0.7319999999999998,13,13,14,4,150,29,25,4,6,0,20,5,1,L,0.21390666666666663,0.19982758620689653,0.23667999999999997,0.183
19,7,13,1,11,38.73499999999997,17,166,71,64,67,69,38.97899999999997,0.366,0.183,3.1109999999999975,18,1,1,8,167,1,1,10,4,1,48,4,1,L,0.2334071856287425,0.366,0.183,0.31109999999999993
19,7,14,1,13,28.669999999999977,12,130,118,114,119,120,28.974999999999977,0.6709999999999998,1.0979999999999994,1.585999999999999,13,3,4,6,131,3,6,7,2,1,24,2,1,L,0.2211832061068702,0.22366666666666665,0.18299999999999997,0.22657142857142856
19,8,15,1,8,26.65699999999998,14,124,104,103,99,100,27.266999999999978,0.305,1.1589999999999994,1.0979999999999994,16,2,5,5,126,2,5,5,2,1,24,2,1,L,0.21640476190476188,0.1525,0.23179999999999998,0.2196
19,8,16,1,3,72.2850000000009,14,325,28,23,19,112,72.95600000000091,0.9149999999999996,0.183,0.6709999999999998,18,3,1,3,331,5,1,3,5,0,19,4.75,1,L,0.2204108761329305,0.183,0.183,0.22366666666666665
19,9,17,1,2,25.25399999999998,18,111,38,59,54,51,26.47399999999998,0.244,1.1589999999999994,0.061,20,2,5,1,114,2,6,1,4,0.5,29,4.25,1,L,0.2322280701754386,0.122,0.19316666666666665,0.061
19,9,18,1,3,20.373999999999985,19,83,35,27,33,5,21.288999999999984,2.3789999999999982,0.183,3.1109999999999975,20,8,2,7,87,11,2,8,5,0.5,36,5.25,1,L,0.24470114942528734,0.21627272727272726,0.0915,0.3888749999999999
19,10,19,1,8,37.27099999999997,16,168,15,97,22,16,63.01299999999995,0.061,0.488,2.500999999999998,20,1,3,10,275,1,3,10,2,0.5,38,5,1,L,0.2291381818181818,0.061,0.16266666666666665,0.25009999999999993
19,10,20,1,11,22.020999999999983,15,90,4,5,109,61,47.33599999999996,0.6099999999999999,0.183,0.061,20,4,2,1,182,4,2,1,4,0,18,4.5,1,L,0.26008791208791204,0.1525,0.0915,0.061
19,11,21,1,15,20.373999999999985,20,95,13,22,18,118,20.434999999999985,4.452999999999997,8.112999999999994,2.0129999999999986,20,13,15,9,96,20,34,11,6,0.5,38,5,1,L,0.21286458333333333,0.22265,0.2386176470588235,0.183
19,11,22,1,14,64.477,10,245,3,85,98,39,81.55699999999999,0.061,0.366,0.061,20,1,2,1,319,1,2,1,3,0,16,4,1,L,0.2556645768025078,0.061,0.183,0.061
20,1,1,1,13,84.18000000000228,10,340,119,112,23,116,85.94900000000229,2.500999999999998,3.903999999999997,0.366,16,6,13,3,347,12,18,3,2,0.5,18,3,1,L,0.2476916426512968,0.20841666666666667,0.21688888888888888,0.122
20,1,2,1,8,18.482999999999986,12,79,107,104,108,98,18.604999999999986,2.0739999999999985,1.2809999999999993,0.488,13,6,7,3,80,7,9,3,2,1,24,2,1,L,0.23256249999999998,0.29628571428571426,0.14233333333333334,0.16266666666666665
20,2,3,1,15,40.80899999999997,15,185,16,15,21,61,41.66299999999997,15.737999999999987,2.1349999999999985,1.2809999999999993,19,19,7,6,190,78,7,6,6,0.5,40,5.5,1,L,0.21927894736842102,0.20176923076923076,0.30499999999999994,0.2135
20,2,4,1,12,17.567999999999987,15,78,3,50,48,46,45.322999999999965,0.305,0.183,0.122,20,1,1,2,193,1,1,2,5,0,20,5,1,L,0.2348341968911917,0.305,0.183,0.061
20,3,5,1,7,11.83399999999999,13,65,3,1,10,7,13.05399999999999,5.184999999999996,1.0979999999999994,1.7689999999999988,17,10,5,6,69,17,5,8,6,1,72,6,1,L,0.18918840579710144,0.305,0.2196,0.22112499999999996
20,3,6,1,15,15.615999999999987,14,81,18,23,28,25,15.676999999999987,5.916999999999995,6.038999999999995,3.598999999999997,15,16,16,8,82,31,29,15,6,0,22,5.5,1,L,0.19118292682926827,0.19087096774193546,0.2082413793103448,0.23993333333333333
20,4,7,1,3,39.58899999999997,18,177,26,55,23,35,39.77199999999997,7.197999999999994,7.563999999999994,0.122,19,16,13,1,178,33,35,1,5,0,20,5,1,L,0.223438202247191,0.2181212121212121,0.2161142857142857,0.122
20,4,8,1,7,27.449999999999978,10,128,1,2,11,39,27.510999999999978,1.2809999999999993,6.221999999999995,4.208999999999997,11,5,13,12,129,5,22,15,6,0.5,41,5.75,1,L,0.21326356589147286,0.2562,0.2828181818181818,0.28059999999999996
20,5,9,1,11,34.281999999999975,15,141,72,66,69,61,34.952999999999975,0.9149999999999996,0.183,5.489999999999996,17,3,1,11,143,3,1,25,4,1,48,4,1,L,0.2444265734265734,0.305,0.183,0.2196
20,5,10,1,1,21.288999999999984,20,112,81,80,59,25,21.532999999999983,1.1589999999999994,13.29799999999999,0.9759999999999995,20,4,16,4,114,4,54,4,3,0,15,3.75,1,L,0.18888596491228068,0.28975,0.24625925925925923,0.24399999999999997
20,6,11,1,15,18.421999999999986,10,82,14,24,19,28,18.482999999999986,2.439999999999998,1.646999999999999,1.0979999999999994,11,5,4,5,83,9,4,5,6,0.5,41,5.75,1,L,0.2226867469879518,0.2711111111111111,0.41174999999999995,0.2196
20,6,12,1,8,62.34199999999995,11,266,4,75,106,73,76.18899999999994,0.6099999999999999,0.366,0.061,20,2,2,1,325,2,2,1,2,0,14,3.5,1,L,0.23442769230769228,0.30499999999999994,0.183,0.061
20,7,13,1,13,13.846999999999989,18,70,115,118,15,119,13.907999999999989,16.530999999999988,2.3789999999999982,0.5489999999999999,19,17,8,3,71,75,8,3,2,0.5,18,3,1,L,0.19588732394366196,0.22041333333333332,0.29737499999999994,0.183
20,7,14,1,11,30.316999999999975,14,146,63,65,71,61,30.438999999999975,2.1959999999999984,0.488,1.9519999999999986,15,4,5,9,147,4,5,11,4,1,48,4,1,L,0.20706802721088435,0.5489999999999997,0.09759999999999999,0.17745454545454545
20,8,15,1,1,25.07099999999998,17,124,76,75,82,70,25.25399999999998,1.0369999999999995,1.463999999999999,18.543999999999986,18,5,6,15,125,6,6,79,3,0.5,22,3.25,1,L,0.202032,0.17283333333333334,0.24399999999999997,0.23473417721518985
20,8,16,1,14,17.384999999999987,19,101,90,91,21,86,19.458999999999985,2.2569999999999983,15.981999999999987,0.6099999999999999,20,8,16,4,108,10,60,4,3,0.5,24,3.75,1,L,0.1801759259259259,0.22569999999999998,0.26636666666666664,0.1525
20,9,17,1,2,10.796999999999992,14,51,54,60,99,26,11.71199999999999,0.9149999999999996,8.051999999999994,0.061,16,4,14,1,53,4,27,1,4,0,15,3.75,1,L,0.22098113207547168,0.22874999999999998,0.29822222222222217,0.061
20,9,18,1,12,67.77100000000038,14,299,81,1,46,68,92.47600000000037,2.9279999999999977,0.6709999999999998,1.0979999999999994,20,12,4,5,404,15,4,5,5,0,18,4.5,1,L,0.22890099009900988,0.19519999999999998,0.16775,0.2196
20,10,19,1,14,46.84799999999996,13,216,96,94,91,20,47.15299999999996,2.500999999999998,0.183,2.0739999999999985,14,9,1,10,217,10,1,12,3,0.5,24,3.75,1,L,0.21729493087557603,0.25009999999999993,0.183,0.17283333333333334
20,10,20,1,13,17.201999999999988,14,76,111,112,118,81,17.384999999999987,0.7319999999999998,0.6099999999999999,1.8909999999999987,15,2,2,9,77,2,2,11,2,0.5,15,2.25,1,L,0.22577922077922075,0.3659999999999999,0.305,0.1719090909090909
20,11,21,1,2,51.97199999999996,11,223,50,58,57,52,53.13099999999996,1.7079999999999989,3.537999999999997,4.635999999999997,15,9,11,15,227,11,19,25,4,1,48,4,1,L,0.23405726872246693,0.15527272727272726,0.18621052631578947,0.18544
20,11,22,1,14,27.754999999999978,20,126,4,91,44,95,54.411999999999956,0.6709999999999998,0.366,0.061,20,4,2,1,243,4,2,1,3,0,17,4.25,1,L,0.22391769547325102,0.16775,0.183,0.061
21,1,1,1,2,20.007999999999985,19,111,54,56,51,60,21.776999999999983,2.1349999999999985,0.244,1.2809999999999993,20,7,2,6,123,8,2,7,4,1,48,4,1,L,0.17704878048780487,0.2668749999999999,0.122,0.183
21,1,2,1,1,62.28099999999995,13,272,81,77,74,4,64.23299999999995,0.122,1.585999999999999,1.2809999999999993,20,1,6,4,281,1,6,5,3,0.5,24,3.75,1,L,0.22858718861209962,0.122,0.2643333333333333,0.2562
21,2,3,1,13,11.406999999999991,17,60,16,113,24,120,25.92499999999998,0.183,0.183,0.8539999999999996,20,3,3,3,121,3,3,3,2,0,16,4,1,L,0.21425619834710743,0.061,0.061,0.2846666666666666
21,2,4,1,11,31.414999999999974,17,147,68,62,63,5,32.08599999999998,0.183,0.366,3.0499999999999976,20,1,3,11,150,1,3,15,4,0.5,30,4.5,1,L,0.21390666666666666,0.183,0.122,0.2033333333333333
21,3,5,1,3,21.166999999999984,15,101,27,35,36,31,21.593999999999983,0.122,1.1589999999999994,0.183,19,1,5,1,105,1,7,2,5,1,60,5,1,L,0.20565714285714284,0.122,0.16557142857142854,0.0915
21,3,6,1,15,31.597999999999974,19,146,13,22,19,18,31.658999999999974,1.646999999999999,0.9149999999999996,7.380999999999994,20,6,3,13,147,6,3,25,6,1,72,6,1,L,0.2153673469387755,0.27449999999999997,0.30499999999999994,0.29523999999999995
21,4,7,1,11,64.84300000000005,12,264,80,18,114,113,98.14900000000003,11.162999999999991,2.1349999999999985,2.9279999999999977,20,18,8,7,395,42,10,8,4,0,13,3.25,1,L,0.2484784810126582,0.26578571428571424,0.21349999999999997,0.36599999999999994
21,4,8,1,8,12.56599999999999,15,58,105,2,6,104,13.35899999999999,18.482999999999986,3.598999999999997,1.3419999999999992,17,18,11,7,60,80,13,7,2,0,16,4,1,L,0.22265,0.23103749999999998,0.2768461538461538,0.1917142857142857
21,5,9,1,11,74.90800000000121,10,343,72,63,67,75,76.06700000000122,0.366,0.9759999999999995,3.2939999999999974,15,2,5,10,348,2,5,12,4,0.5,27,3.75,1,L,0.21858333333333332,0.183,0.19519999999999998,0.27449999999999997
21,5,10,1,14,48.61699999999996,13,212,89,2,95,91,48.73899999999996,53.31399999999996,2.2569999999999983,0.8539999999999996,14,19,12,3,213,186,14,4,3,0.5,24,3.75,1,L,0.22882159624413143,0.2866344086021505,0.1612142857142857,0.2135
21,6,11,1,15,10.796999999999992,20,57,15,14,24,23,11.589999999999991,15.615999999999987,0.6709999999999998,1.1589999999999994,20,17,4,5,63,67,4,5,6,1,72,6,1,L,0.18396825396825398,0.23307462686567162,0.16775,0.2318
21,6,12,1,8,8.234999999999994,20,44,100,101,105,102,29.15799999999998,0.183,1.0979999999999994,1.8909999999999987,20,2,4,6,125,2,4,6,2,1,24,2,1,L,0.23326399999999997,0.0915,0.27449999999999997,0.3151666666666666
21,7,13,1,14,71.91900000000086,13,318,89,91,94,99,72.77300000000086,2.2569999999999983,0.488,1.585999999999999,16,8,5,8,321,8,5,8,3,0.5,20,2.75,1,L,0.22670716510903424,0.28212499999999996,0.09759999999999999,0.19824999999999998
21,7,14,1,15,11.467999999999991,20,57,15,23,19,22,14.517999999999988,0.8539999999999996,0.122,0.488,20,4,1,2,69,4,1,2,6,1,72,6,1,L,0.21040579710144927,0.21349999999999997,0.122,0.244
21,8,15,1,7,9.820999999999993,18,47,1,6,2,8,9.881999999999993,1.3419999999999992,2.805999999999998,0.305,19,5,9,3,48,7,14,3,6,1,72,6,1,L,0.205875,0.1917142857142857,0.2004285714285714,0.10166666666666667
21,8,16,1,11,75.7010000000013,12,318,67,20,14,110,76.8600000000013,13.29799999999999,0.7929999999999997,5.672999999999996,20,19,3,12,327,55,3,21,4,0,18,4.5,1,L,0.235045871559633,0.24178181818181815,0.26433333333333325,0.2701428571428571
21,9,17,1,1,53.55799999999996,10,245,15,82,18,20,115.9609999999999,0.427,0.366,0.183,20,3,3,2,491,3,3,2,3,0.5,39,5.25,1,L,0.236173116089613,0.14233333333333334,0.122,0.0915
21,9,18,1,7,13.663999999999989,20,73,6,4,7,11,14.456999999999988,2.2569999999999983,0.061,3.537999999999997,20,9,1,9,76,12,1,14,6,1,72,6,1,L,0.1902236842105263,0.18808333333333332,0.061,0.25271428571428567
21,10,19,1,15,16.469999999999988,20,72,13,24,14,17,16.835999999999988,1.9519999999999986,3.842999999999997,2.1959999999999984,20,7,13,8,74,9,18,9,6,1,72,6,1,L,0.2275135135135135,0.21688888888888888,0.2135,0.24399999999999994
21,10,20,1,2,53.43599999999996,14,246,5,55,35,34,177.32700000000682,0.427,1.9519999999999986,0.061,20,2,9,1,766,2,9,1,4,0,20,5,1,L,0.23149738903394254,0.2135,0.21688888888888885,0.061
22,1,1,1,14,52.09399999999996,16,229,93,87,85,95,52.70399999999996,2.561999999999998,0.366,0.244,18,8,1,3,232,8,1,3,3,1,36,3,1,L,0.22717241379310343,0.3202499999999999,0.366,0.08133333333333333
22,1,2,1,8,23.48499999999998,17,107,107,101,98,103,23.91199999999998,0.183,0.244,3.1109999999999975,20,1,2,8,110,1,2,12,2,1,24,2,1,L,0.21738181818181818,0.183,0.122,0.25925
22,2,3,1,14,89.18200000000286,13,396,86,68,96,66,89.60900000000287,4.818999999999996,0.488,2.622999999999998,17,11,4,9,401,13,4,13,3,0,14,3.5,1,L,0.22346384039900247,0.37069230769230765,0.122,0.20176923076923073
22,2,4,1,7,21.349999999999984,14,87,1,28,29,8,21.410999999999984,5.977999999999995,1.2199999999999993,3.903999999999997,15,13,5,12,88,31,8,22,6,0,22,5.5,1,L,0.24330681818181815,0.19283870967741934,0.1525,0.17745454545454545
22,3,5,1,12,24.82699999999998,17,131,15,45,67,38,40.19899999999997,0.061,1.2809999999999993,0.427,20,1,8,2,196,1,8,2,5,0,20,5,1,L,0.2050969387755102,0.061,0.160125,0.2135
22,3,6,1,13,67.83200000000039,9,262,119,111,114,26,68.0150000000004,2.744999999999998,2.1959999999999984,4.635999999999997,11,8,6,16,264,13,7,24,2,0.5,17,2.75,1,L,0.2576325757575757,0.21115384615384614,0.31371428571428567,0.19316666666666665
22,4,7,1,14,18.604999999999986,15,91,96,87,89,88,19.153999999999986,2.1349999999999985,0.244,0.122,18,7,1,2,95,7,1,2,3,1,36,3,1,L,0.20162105263157892,0.305,0.244,0.061
22,4,8,1,1,11.406999999999991,20,57,74,43,81,102,11.528999999999991,17.445999999999987,2.9889999999999977,0.183,20,16,9,1,59,68,9,1,3,0,13,3.25,1,L,0.19540677966101694,0.25655882352941173,0.33211111111111097,0.183
22,5,9,1,14,27.08399999999998,19,119,95,94,88,38,27.205999999999978,1.646999999999999,3.2939999999999974,2.683999999999998,20,8,11,9,121,8,18,9,3,0.5,23,3.5,1,L,0.22484297520661156,0.20587499999999997,0.183,0.29822222222222217
22,5,10,1,1,27.205999999999978,13,129,78,83,82,107,27.510999999999978,1.7079999999999989,0.427,15.249999999999988,14,8,2,15,130,8,2,63,3,0.5,20,2.75,1,L,0.2116230769230769,0.2135,0.2135,0.24206349206349204
22,6,11,1,7,38.97899999999997,15,170,1,11,5,2,39.03999999999997,1.524999999999999,2.744999999999998,1.463999999999999,16,8,7,5,171,9,9,6,6,1,72,6,1,L,0.22830409356725143,0.16944444444444443,0.30499999999999994,0.244
22,6,12,1,8,29.279999999999976,18,123,98,99,55,21,29.401999999999976,1.7689999999999988,7.197999999999994,2.3789999999999982,20,6,13,10,125,8,30,14,2,0,14,3.5,1,L,0.23521599999999998,0.221125,0.23993333333333333,0.16992857142857143
22,7,13,1,7,22.081999999999983,19,110,5,4,49,51,23.60699999999998,2.8669999999999978,2.3789999999999982,0.061,20,8,7,1,116,10,8,1,6,0,20,5,1,L,0.20350862068965517,0.2867,0.29737499999999994,0.061
22,7,14,1,12,46.96999999999996,18,178,37,104,21,14,48.00699999999996,6.709999999999995,6.099999999999995,16.22599999999999,20,14,15,16,184,26,33,64,5,0,19,4.75,1,L,0.26090760869565216,0.25807692307692304,0.18484848484848485,0.25353125
22,8,15,1,13,43.00499999999997,9,187,110,119,120,22,43.06599999999997,0.8539999999999996,0.122,7.9299999999999935,10,4,1,13,188,4,1,36,2,0.5,18,3,1,L,0.22907446808510637,0.2135,0.122,0.22027777777777777
22,8,16,1,2,17.811999999999987,20,98,74,36,50,76,32.939999999999976,31.414999999999974,0.9759999999999995,0.488,20,17,4,4,147,128,4,4,4,0,15,3.75,1,L,0.2240816326530612,0.24542968749999997,0.244,0.122
22,9,17,1,1,28.852999999999977,19,119,75,74,19,18,30.438999999999975,0.305,2.9889999999999977,4.391999999999997,20,2,8,11,129,2,12,15,3,0,18,4.5,1,L,0.2359612403100775,0.1525,0.24908333333333332,0.29279999999999995
22,9,18,1,7,17.262999999999987,17,95,8,3,4,5,27.083999999999982,0.8539999999999996,0.9759999999999995,0.9759999999999995,20,4,4,4,135,4,4,4,6,1,72,6,1,L,0.2006222222222222,0.2135,0.24399999999999997,0.244
22,10,19,1,7,40.74799999999997,16,180,5,37,10,1,41.05299999999997,1.2199999999999993,0.5489999999999999,0.7929999999999997,19,3,3,4,184,3,3,5,6,0.5,41,5.75,1,L,0.2231141304347826,0.4066666666666665,0.183,0.1586
22,10,20,1,14,22.691999999999982,13,105,67,95,88,96,54.411999999999956,1.1589999999999994,0.061,1.0369999999999995,20,4,1,7,225,6,1,7,3,0.5,22,3.25,1,L,0.24183111111111108,0.19316666666666665,0.061,0.14814285714285713
22,11,21,1,8,51.36199999999996,19,208,101,2,11,99,51.48399999999996,4.818999999999996,2.9889999999999977,1.4029999999999991,20,14,12,8,209,20,13,10,2,0,16,4,1,L,0.24633492822966505,0.24094999999999997,0.22992307692307692,0.1403
22,11,22,1,1,47.09199999999996,12,196,76,83,82,79,47.33599999999996,1.463999999999999,5.428999999999996,2.500999999999998,14,4,10,5,198,6,22,6,3,1,36,3,1,L,0.23907070707070704,0.244,0.24677272727272725,0.4168333333333332
23,1,1,1,12,37.57599999999997,17,164,40,43,48,82,38.85699999999997,1.524999999999999,4.208999999999997,2.8669999999999978,20,5,10,8,169,5,17,14,5,0.5,33,4.5,1,L,0.2299230769230769,0.305,0.24758823529411764,0.2047857142857143
23,1,2,1,15,18.604999999999986,11,97,21,16,95,107,18.665999999999986,3.903999999999997,17.628999999999987,1.3419999999999992,12,9,17,5,98,15,79,5,6,0,17,4.25,1,L,0.19046938775510203,0.26026666666666665,0.2231518987341772,0.26839999999999997
23,2,3,1,14,61.85399999999995,14,243,40,37,99,104,63.01299999999995,60.75599999999995,2.500999999999998,7.502999999999994,17,19,7,16,246,281,9,38,3,0,14,3.5,1,L,0.256150406504065,0.21621352313167258,0.2778888888888888,0.19744736842105262
23,2,4,1,3,29.218999999999976,16,140,29,36,27,26,29.828999999999976,0.244,0.427,1.524999999999999,20,2,4,8,144,3,4,9,5,1,60,5,1,L,0.2071458333333333,0.08133333333333333,0.10675,0.16944444444444445
23,3,5,1,15,19.275999999999986,19,108,18,15,13,20,19.397999999999985,0.5489999999999999,5.306999999999996,0.9149999999999996,20,4,13,2,109,4,25,2,6,1,72,6,1,L,0.17796330275229358,0.13724999999999998,0.21227999999999997,0.4574999999999999
23,3,6,1,14,67.9540000000004,11,302,92,95,85,6,68.3200000000004,2.1959999999999984,2.3179999999999983,11.101999999999991,15,8,8,14,307,13,12,37,3,0.5,24,3.75,1,L,0.22254071661237784,0.16892307692307693,0.19316666666666665,0.300054054054054
23,4,7,1,11,31.963999999999974,19,148,2,66,48,46,96.99000000000004,0.305,0.5489999999999999,0.061,20,2,2,1,430,2,2,1,4,0,20,5,1,L,0.2255581395348837,0.1525,0.27449999999999997,0.061
23,4,8,1,2,18.177999999999987,20,74,56,52,49,59,19.458999999999985,1.0979999999999994,0.6709999999999998,1.0369999999999995,20,4,2,3,81,5,2,4,4,1,48,4,1,L,0.24023456790123454,0.2196,0.3355,0.25925
23,5,9,1,11,57.58399999999995,9,238,64,71,38,20,60.69499999999995,0.305,1.0979999999999994,2.439999999999998,19,1,6,8,251,1,6,11,4,0,19,4.75,1,L,0.24181274900398403,0.305,0.183,0.2218181818181818
23,5,10,1,2,17.933999999999987,20,84,5,58,107,108,28.05999999999998,0.488,0.061,4.208999999999997,20,2,1,12,124,2,1,19,4,0,14,3.5,1,L,0.22629032258064513,0.244,0.061,0.22152631578947368
