Subject,Round,Phase,afterbreak,Schema,Schema_RT,Schema_OB,Schema_AS,Cho_1,Cho_2,Cho_3,Cho_4,RT_1,RT_2,RT_3,RT_4,OB_1,OB_2,OB_3,OB_4,AS_1,AS_2,AS_3,AS_4,schema_payoff,AC,performance,payoff,breakR,type,dwellmean_1,dwellmean_2,dwellmean_3,dwellmean_4
1,1,1,1,2,24.64399999999998,20,115,60,58,10,7,25.37599999999998,0.6709999999999998,8.112999999999994,15.798999999999987,20,2,14,15,118,2,40,68,4,0,20,5,1,L,0.2150508474576271,0.33549999999999996,0.20282499999999998,0.23233823529411762
1,1,2,1,11,43.55399999999997,11,175,66,72,62,82,44.041999999999966,2.1349999999999985,1.463999999999999,5.611999999999996,13,9,5,11,177,11,6,18,4,0.5,27,3.75,1,L,0.24882485875706212,0.1940909090909091,0.24399999999999997,0.31177777777777776
1,2,3,1,3,12.62699999999999,15,53,29,31,28,20,12.87099999999999,0.122,1.463999999999999,10.186999999999992,17,1,6,16,55,1,7,48,5,0.5,36,5.25,1,L,0.2340181818181818,0.122,0.20914285714285713,0.21222916666666664
1,2,4,1,13,25.55899999999998,9,96,115,113,117,112,26.35199999999998,2.9889999999999977,0.5489999999999999,2.9279999999999977,13,13,4,8,101,19,4,8,2,1,24,2,1,L,0.26091089108910887,0.15731578947368421,0.13724999999999998,0.3659999999999999
1,3,5,1,3,25.61999999999998,19,134,29,28,26,51,25.98599999999998,4.452999999999997,0.122,10.796999999999992,20,11,2,17,137,20,2,46,5,0.5,34,4.75,1,L,0.18967883211678832,0.22265,0.061,0.23471739130434782
1,3,6,1,11,25.49799999999998,12,111,38,5,109,3,32.26899999999998,22.264999999999983,12.19999999999999,2.561999999999998,20,19,17,8,143,95,46,8,4,0,19,4.75,1,L,0.22565734265734264,0.23436842105263156,0.2652173913043478,0.32025
1,4,7,1,14,23.362999999999982,12,110,90,92,86,96,24.09499999999998,0.8539999999999996,0.8539999999999996,5.855999999999995,15,5,2,12,114,5,2,19,3,1,36,3,1,L,0.211359649122807,0.1708,0.4269999999999999,0.30821052631578943
1,4,8,1,15,27.205999999999978,19,120,16,19,22,26,27.266999999999978,2.9279999999999977,4.269999999999997,10.125999999999992,20,6,13,16,121,9,25,44,6,0.5,41,5.75,1,L,0.2253471074380165,0.32533333333333325,0.1708,0.2301363636363636
1,5,9,1,14,8.722999999999994,13,45,92,94,89,56,9.088999999999993,2.744999999999998,0.488,7.8689999999999936,15,7,5,10,47,12,5,23,3,0.5,22,3.25,1,L,0.19338297872340426,0.22874999999999998,0.09759999999999999,0.34213043478260863
1,5,10,1,7,22.264999999999983,20,111,9,4,11,115,23.54599999999998,0.061,2.2569999999999983,5.855999999999995,20,1,8,15,115,1,8,26,6,0.5,38,5,1,L,0.2047478260869565,0.061,0.28212499999999996,0.22523076923076923
1,6,11,1,7,18.726999999999986,14,84,11,3,2,1,20.983999999999984,0.183,0.5489999999999999,4.086999999999997,19,1,2,12,90,2,3,28,6,1,72,6,1,L,0.23315555555555553,0.0915,0.183,0.1459642857142857
1,6,12,1,15,19.458999999999985,17,88,14,23,15,16,19.519999999999985,0.488,1.2809999999999993,1.0979999999999994,18,1,7,3,89,1,9,4,6,1,72,6,1,L,0.2193258426966292,0.488,0.14233333333333334,0.27449999999999997
1,7,13,1,12,24.46099999999998,16,128,2,42,5,3,60.99999999999996,0.366,5.001999999999996,27.510999999999978,20,3,12,17,265,3,16,105,5,0.5,41,5.75,1,L,0.230188679245283,0.122,0.31262499999999993,0.2620095238095238
1,7,14,1,3,32.08599999999998,17,153,14,78,66,79,86.49799999999993,0.7319999999999998,0.488,0.244,20,2,3,2,383,2,3,2,5,0,16,4,1,L,0.2258433420365535,0.3659999999999999,0.16266666666666665,0.122
1,8,15,1,7,18.543999999999986,19,99,4,6,7,8,18.726999999999986,3.659999999999997,3.4159999999999973,0.122,20,11,10,2,101,13,14,2,6,1,72,6,1,L,0.18541584158415841,0.2815384615384615,0.244,0.061
1,8,16,1,8,24.82699999999998,19,121,103,102,71,19,25.13199999999998,4.452999999999997,2.1959999999999984,5.855999999999995,20,10,8,14,123,18,9,26,2,0,14,3.5,1,L,0.20432520325203252,0.24738888888888885,0.24399999999999997,0.2252307692307692
1,9,17,1,15,24.03399999999998,14,111,14,13,24,79,24.21699999999998,2.744999999999998,2.439999999999998,2.1959999999999984,16,11,6,7,113,14,7,11,6,0.5,39,5.25,1,L,0.2143097345132743,0.19607142857142856,0.34857142857142853,0.19963636363636364
1,9,18,1,7,18.299999999999986,15,93,8,2,9,12,18.604999999999986,0.6099999999999999,0.244,2.500999999999998,17,2,1,4,95,2,1,8,6,1,72,6,1,L,0.19584210526315787,0.305,0.244,0.31262499999999993
1,10,19,1,12,15.920999999999987,15,89,118,1,76,111,25.43699999999998,37.63699999999997,3.2939999999999974,0.5489999999999999,20,19,15,4,125,162,18,5,5,0,13,3.25,1,L,0.20349599999999998,0.23232716049382715,0.183,0.1098
1,10,20,1,15,43.980999999999966,14,197,16,19,24,94,44.041999999999966,5.550999999999996,2.622999999999998,2.8669999999999978,15,15,8,7,198,27,10,12,6,0.5,39,5.25,1,L,0.2224343434343434,0.20559259259259258,0.2623,0.23891666666666664
1,11,21,1,3,19.458999999999985,20,96,34,28,27,36,21.044999999999984,0.9149999999999996,0.488,0.183,20,6,3,1,105,9,3,1,5,1,60,5,1,L,0.20042857142857143,0.10166666666666667,0.16266666666666665,0.183
1,11,22,1,2,22.996999999999982,20,109,55,50,51,105,24.39999999999998,1.0979999999999994,0.488,4.879999999999996,20,8,2,14,116,8,2,29,4,0.5,26,3.5,1,L,0.21034482758620687,0.13724999999999998,0.244,0.1682758620689655
2,1,1,1,11,28.059999999999977,17,123,64,68,72,70,28.181999999999977,1.1589999999999994,1.524999999999999,0.061,18,5,4,1,125,6,5,1,4,1,48,4,1,L,0.225456,0.19316666666666665,0.305,0.061
2,1,2,1,7,24.64399999999998,13,107,12,3,1,4,27.266999999999978,0.183,7.136999999999994,5.855999999999995,20,1,15,13,115,1,31,23,6,1,72,6,1,L,0.23710434782608691,0.183,0.2302258064516129,0.25460869565217387
2,2,3,1,14,75.82300000000131,16,323,96,85,89,21,76.31100000000131,1.9519999999999986,0.6709999999999998,4.452999999999997,19,7,4,11,326,7,4,17,3,0.5,24,3.75,1,L,0.23408282208588954,0.2788571428571428,0.16775,0.26194117647058823
2,2,4,1,12,26.04699999999998,18,115,38,41,39,47,27.388999999999978,0.488,2.0129999999999986,0.305,20,2,6,3,120,2,11,3,5,1,60,5,1,L,0.22824166666666665,0.244,0.183,0.10166666666666667
2,3,5,1,3,27.14499999999998,17,134,29,34,28,62,27.266999999999978,2.9889999999999977,0.427,19.641999999999985,18,8,3,17,135,9,3,78,5,0.5,34,4.75,1,L,0.20197777777777776,0.33211111111111097,0.14233333333333334,0.2518205128205128
2,3,6,1,13,33.915999999999976,14,143,16,22,17,116,54.289999999999964,0.183,0.122,0.244,20,2,1,2,239,2,1,2,2,0.5,38,5,1,L,0.22715481171548116,0.0915,0.122,0.122
2,4,7,1,15,39.46699999999997,12,172,14,20,18,48,39.52799999999997,2.1959999999999984,0.9149999999999996,11.406999999999991,13,5,4,15,173,6,4,48,6,0.5,41,5.75,1,L,0.22848554913294797,0.3659999999999999,0.22874999999999998,0.2376458333333333
2,4,8,1,14,67.83200000000039,14,302,95,92,85,26,69.9670000000004,4.818999999999996,3.2329999999999974,3.2329999999999974,20,12,12,11,311,22,15,15,3,0.5,23,3.5,1,L,0.22497427652733115,0.21904545454545454,0.2155333333333333,0.21553333333333333
2,5,9,1,15,9.210999999999993,11,43,13,21,15,23,9.271999999999993,1.1589999999999994,0.7929999999999997,0.244,12,5,3,2,44,5,3,2,6,1,72,6,1,L,0.2107272727272727,0.2318,0.2643333333333333,0.122
2,5,10,1,14,19.946999999999985,18,84,95,88,89,103,20.007999999999985,1.3419999999999992,0.122,6.343999999999995,19,3,2,14,85,3,2,29,3,0.5,20,2.75,1,L,0.23538823529411762,0.4473333333333331,0.061,0.21875862068965518
2,6,11,1,3,63.13499999999995,10,239,34,27,49,56,64.53799999999995,3.3549999999999973,0.7319999999999998,0.7929999999999997,20,12,2,2,249,12,2,2,5,0,18,4.5,1,L,0.25918875502008026,0.2795833333333333,0.3659999999999999,0.39649999999999985
2,6,12,1,8,59.65799999999995,15,275,102,104,8,5,60.26799999999995,2.1349999999999985,15.310999999999988,15.432999999999987,18,8,16,15,279,12,57,59,2,0,16,4,1,L,0.2160143369175627,0.17791666666666667,0.26861403508771925,0.26157627118644067
2,7,13,1,14,15.798999999999987,17,78,88,94,96,37,23.54599999999998,2.8669999999999978,0.9149999999999996,14.029999999999989,20,8,4,16,109,10,4,52,3,0.5,23,3.5,1,L,0.2160183486238532,0.28669999999999995,0.22874999999999995,0.2698076923076923
2,7,14,1,3,18.787999999999986,20,88,34,31,29,28,20.922999999999984,0.6099999999999999,0.061,0.366,20,2,1,3,102,2,1,3,5,1,60,5,1,L,0.20512745098039215,0.305,0.061,0.122
2,8,15,1,3,22.630999999999982,19,110,27,31,22,57,22.874999999999982,2.500999999999998,18.055999999999987,9.271999999999993,20,11,16,16,111,13,72,40,5,0,20,5,1,L,0.20608108108108106,0.19238461538461538,0.25077777777777777,0.23179999999999998
2,8,16,1,11,21.898999999999983,17,108,71,64,70,65,22.020999999999983,0.061,1.0979999999999994,1.646999999999999,18,1,4,6,109,1,6,6,4,1,48,4,1,L,0.2020275229357798,0.061,0.183,0.27449999999999997
2,9,17,1,8,12.19999999999999,15,50,98,99,108,102,12.87099999999999,0.183,10.369999999999992,2.2569999999999983,19,1,16,9,54,1,54,11,2,1,24,2,1,L,0.23835185185185184,0.183,0.19203703703703703,0.2051818181818182
2,9,18,1,15,20.007999999999985,20,98,14,24,15,19,20.678999999999984,5.123999999999996,5.916999999999995,1.3419999999999992,20,15,16,8,101,22,37,8,6,1,72,6,1,L,0.20474257425742573,0.23290909090909087,0.1599189189189189,0.16775
2,10,19,1,3,42.08999999999997,14,173,28,33,30,36,42.27299999999997,1.7689999999999988,0.7929999999999997,1.3419999999999992,16,9,3,7,176,11,3,10,5,1,60,5,1,L,0.24018749999999997,0.1608181818181818,0.2643333333333333,0.13419999999999999
2,10,20,1,7,65.45300000000012,13,270,6,110,92,67,68.44200000000012,8.783999999999994,0.305,5.245999999999996,20,18,1,15,286,38,2,23,6,0,15,3.75,1,L,0.23930769230769228,0.23115789473684206,0.1525,0.2280869565217391
2,11,21,1,12,46.420999999999964,16,214,46,96,71,86,46.542999999999964,4.025999999999997,26.59599999999998,0.488,17,8,18,2,215,10,114,2,5,0,15,3.75,1,L,0.21647906976744186,0.4025999999999999,0.23329824561403506,0.244
2,11,22,1,13,28.608999999999977,18,132,113,2,117,115,29.157999999999976,9.942999999999993,0.061,0.305,20,16,1,2,137,41,1,2,2,0.5,18,3,1,L,0.21283211678832115,0.24251219512195119,0.061,0.1525
3,1,1,1,7,34.647999999999975,15,156,1,7,3,6,34.708999999999975,3.1109999999999975,5.489999999999996,3.3549999999999973,16,9,15,10,157,12,31,12,6,1,72,6,1,L,0.2210764331210191,0.25925,0.17709677419354838,0.2795833333333333
3,1,2,1,3,24.58299999999998,11,116,29,34,27,30,24.70499999999998,0.305,0.183,1.7079999999999989,13,1,2,9,118,1,2,9,5,1,60,5,1,L,0.209364406779661,0.305,0.0915,0.18977777777777777
3,2,3,1,1,20.068999999999985,19,96,78,82,47,74,24.09499999999998,1.2199999999999993,6.038999999999995,1.463999999999999,20,7,12,5,121,7,25,7,3,0.5,23,3.5,1,L,0.19913223140495867,0.1742857142857143,0.24156,0.2091428571428571
3,2,4,1,15,15.432999999999987,18,86,13,23,68,65,15.493999999999987,5.916999999999995,3.659999999999997,21.837999999999983,19,14,9,15,87,27,15,86,6,0,20,5,1,L,0.1780919540229885,0.21914814814814812,0.24399999999999997,0.2539302325581395
3,3,5,1,8,42.02899999999997,18,173,103,100,99,101,43.12699999999997,0.244,1.2809999999999993,1.0369999999999995,20,1,2,4,178,2,2,5,2,1,24,2,1,L,0.24228651685393254,0.122,0.6404999999999997,0.20739999999999997
3,3,6,1,15,38.42999999999997,14,183,13,22,70,67,38.55199999999997,2.9279999999999977,5.611999999999996,0.5489999999999999,15,10,11,2,184,12,22,3,6,0,20,5,1,L,0.20952173913043476,0.244,0.2550909090909091,0.183
3,4,7,1,13,28.852999999999977,12,134,120,115,112,55,29.096999999999976,3.4159999999999973,5.001999999999996,3.0499999999999976,14,7,12,13,136,10,20,18,2,0.5,16,2.5,1,L,0.21394852941176468,0.3415999999999999,0.2501,0.16944444444444445
3,4,8,1,3,30.377999999999975,18,132,33,34,29,23,30.621999999999975,2.500999999999998,0.6709999999999998,9.881999999999993,20,7,3,14,134,9,3,37,5,0.5,36,5.25,1,L,0.2285223880597015,0.27788888888888885,0.22366666666666665,0.26708108108108103
3,5,9,1,1,20.983999999999984,18,93,77,74,7,6,21.410999999999984,0.7929999999999997,9.637999999999993,5.916999999999995,20,4,15,15,97,4,41,36,3,0,18,4.5,1,L,0.2207319587628866,0.19824999999999998,0.23507317073170728,0.1643611111111111
3,5,10,1,14,49.77599999999996,18,225,93,69,94,20,50.38599999999996,0.9149999999999996,1.1589999999999994,7.075999999999994,20,2,6,15,228,3,7,36,3,0,16,4,1,L,0.2209912280701754,0.30499999999999994,0.16557142857142856,0.19655555555555554
3,6,11,1,11,22.874999999999982,17,102,19,62,23,71,24.88799999999998,2.561999999999998,0.5489999999999999,1.2809999999999993,20,6,1,4,112,8,1,4,4,0,20,5,1,L,0.2222142857142857,0.3202499999999999,0.5489999999999999,0.32025
3,6,12,1,2,28.059999999999977,20,132,55,50,86,52,28.486999999999977,2.1349999999999985,2.0129999999999986,3.9649999999999967,20,9,7,12,134,10,8,17,4,0.5,27,3.75,1,L,0.21258955223880593,0.21349999999999997,0.251625,0.23323529411764704
3,7,13,1,13,46.298999999999964,14,211,112,111,75,120,46.542999999999964,2.0129999999999986,1.1589999999999994,0.6099999999999999,16,8,2,3,213,11,2,3,2,0.5,15,2.25,1,L,0.21851173708920185,0.18299999999999997,0.5794999999999999,0.20333333333333334
3,7,14,1,14,30.133999999999975,18,135,2,96,106,98,77.46999999999994,5.184999999999996,0.8539999999999996,2.0739999999999985,20,14,2,7,342,24,2,7,3,0,13,3.25,1,L,0.2265204678362573,0.21604166666666666,0.4269999999999999,0.29628571428571426
3,8,15,1,3,36.84399999999997,13,159,34,30,33,28,36.96599999999997,2.0129999999999986,3.0499999999999976,1.524999999999999,15,5,8,6,161,7,12,7,5,1,60,5,1,L,0.22960248447204964,0.28757142857142853,0.25416666666666665,0.21785714285714286
3,8,16,1,7,9.454999999999993,18,42,1,11,5,8,11.77299999999999,0.305,3.598999999999997,0.366,20,2,10,2,53,2,14,2,6,1,72,6,1,L,0.2221320754716981,0.1525,0.25707142857142856,0.183
3,9,17,1,13,25.86399999999998,20,122,111,113,61,72,27.571999999999978,0.8539999999999996,1.585999999999999,2.805999999999998,20,5,6,7,131,5,9,14,2,0,12,3,1,L,0.21047328244274807,0.1708,0.17622222222222222,0.2004285714285714
3,9,18,1,3,61.54899999999995,17,251,3,36,51,97,76.00599999999994,1.8299999999999987,0.122,0.7319999999999998,20,6,1,6,305,8,1,7,5,0,17,4.25,1,L,0.24919999999999998,0.22875,0.122,0.10457142857142857
3,10,19,1,12,12.07799999999999,19,66,47,48,108,13,16.896999999999988,0.061,32.939999999999976,28.974999999999977,20,1,17,16,82,1,123,110,5,0,18,4.5,1,L,0.2060609756097561,0.061,0.26780487804878045,0.26340909090909087
3,10,20,1,3,34.586999999999975,13,162,32,33,25,1,34.647999999999975,2.3179999999999983,1.3419999999999992,8.295999999999994,14,7,5,12,163,9,5,28,5,0.5,36,5.25,1,L,0.21256441717791408,0.25755555555555554,0.26839999999999997,0.29628571428571426
3,11,21,1,7,29.767999999999976,18,128,2,9,39,59,29.828999999999976,1.585999999999999,3.1109999999999975,13.17599999999999,19,5,10,13,129,6,15,51,6,0,21,5.25,1,L,0.23123255813953486,0.2643333333333333,0.20739999999999997,0.25835294117647056
3,11,22,1,3,26.41299999999998,16,112,99,15,65,30,53.55799999999996,5.428999999999996,0.061,0.366,20,14,1,2,220,26,1,2,5,0,17,4.25,1,L,0.24344545454545452,0.2088076923076923,0.061,0.183
4,1,1,1,3,20.617999999999984,20,107,28,27,35,18,22.264999999999983,5.367999999999996,0.427,0.7929999999999997,20,12,2,5,114,18,2,5,5,0.5,36,5.25,1,L,0.19530701754385965,0.29822222222222217,0.2135,0.1586
4,1,2,1,2,80.09300000000181,11,345,58,9,7,3,83.0210000000018,1.585999999999999,4.208999999999997,11.528999999999991,20,7,14,17,363,9,17,46,4,0.5,40,5.5,1,L,0.22870798898071623,0.1762222222222222,0.24758823529411764,0.25063043478260866
4,2,3,1,8,38.97899999999997,11,182,101,103,97,46,39.03999999999997,1.1589999999999994,0.305,2.744999999999998,12,4,2,7,183,4,2,9,2,0.5,17,2.75,1,L,0.21333333333333332,0.28974999999999995,0.1525,0.305
4,2,4,1,7,15.554999999999987,18,82,1,2,3,9,15.615999999999987,0.7319999999999998,2.3179999999999983,0.183,19,3,6,2,83,3,6,2,6,1,72,6,1,L,0.188144578313253,0.244,0.38633333333333314,0.0915
4,3,5,1,13,71.61400000000083,11,317,110,120,118,54,72.83400000000083,0.488,0.366,1.2199999999999993,16,3,2,5,322,3,2,5,2,0.5,16,2.5,1,L,0.2261925465838509,0.16266666666666665,0.183,0.24399999999999994
4,3,6,1,8,45.322999999999965,18,208,99,97,103,72,45.749999999999964,0.366,2.500999999999998,9.393999999999993,20,2,9,16,211,2,10,37,2,0.5,16,2.5,1,L,0.21682464454976302,0.183,0.2501,0.2538918918918919
4,4,7,1,14,59.90199999999995,15,266,4,63,12,10,83.02099999999993,0.061,5.367999999999996,15.737999999999987,20,1,17,17,363,1,26,49,3,0.5,40,5.5,1,L,0.22870798898071623,0.061,0.20646153846153845,0.3211836734693877
4,4,8,1,15,29.645999999999976,18,137,19,23,13,14,29.706999999999976,0.122,1.7689999999999988,11.345999999999991,19,1,9,16,138,1,10,49,6,1,72,6,1,L,0.21526811594202896,0.122,0.17689999999999997,0.23155102040816325
4,5,9,1,12,30.621999999999975,15,129,42,41,11,45,30.743999999999975,0.7319999999999998,18.421999999999986,0.7929999999999997,17,3,17,2,131,3,70,2,5,0.5,36,5.25,1,L,0.23468702290076335,0.244,0.26317142857142856,0.39649999999999996
4,5,10,1,2,21.288999999999984,19,105,49,51,13,22,23.057999999999982,0.9149999999999996,12.26099999999999,9.637999999999993,20,4,18,14,112,5,54,43,4,0,20,5,1,L,0.205875,0.183,0.22705555555555554,0.2241395348837209
4,6,11,1,11,18.604999999999986,18,94,67,72,69,80,19.275999999999986,1.0369999999999995,10.552999999999992,6.953999999999994,20,4,15,11,99,6,48,23,4,0.5,27,3.75,1,L,0.1947070707070707,0.17283333333333334,0.21985416666666663,0.3023478260869565
4,6,12,1,7,12.50499999999999,19,75,7,10,4,6,12.93199999999999,1.3419999999999992,2.1959999999999984,1.1589999999999994,20,7,7,4,77,9,10,5,6,1,72,6,1,L,0.16794805194805196,0.1491111111111111,0.2196,0.2318
4,7,13,1,2,47.70199999999996,13,203,59,53,51,41,50.20299999999996,0.061,1.3419999999999992,6.587999999999995,20,1,7,14,216,1,10,24,4,0.5,29,4.25,1,L,0.23242129629629626,0.061,0.13419999999999999,0.27449999999999997
4,7,14,1,11,88.51100000000278,11,394,63,76,70,18,89.48700000000278,3.476999999999997,0.9149999999999996,5.306999999999996,15,9,3,14,398,14,3,21,4,0,17,4.25,1,L,0.22484170854271354,0.24835714285714283,0.30499999999999994,0.25271428571428567
4,8,15,1,14,16.10399999999999,17,73,96,89,85,116,16.16499999999999,0.061,1.0369999999999995,13.17599999999999,18,1,5,17,74,1,5,55,3,0.5,20,2.75,1,L,0.21844594594594594,0.061,0.20739999999999997,0.23956363636363634
4,8,16,1,3,41.35799999999997,13,168,30,32,29,99,42.57799999999997,0.122,11.650999999999991,0.9759999999999995,18,1,17,6,173,1,51,6,5,0.5,32,4.25,1,L,0.24611560693641615,0.122,0.22845098039215686,0.16266666666666665
4,9,17,1,7,28.425999999999977,14,125,4,11,105,10,28.486999999999977,0.427,5.7949999999999955,4.208999999999997,15,2,10,15,126,2,19,27,6,0.5,38,5,1,L,0.22608730158730156,0.2135,0.30499999999999994,0.15588888888888888
4,9,18,1,15,23.72899999999998,17,113,20,16,13,19,25.07099999999998,2.0739999999999985,7.319999999999994,4.635999999999997,20,8,15,12,119,8,32,19,6,1,72,6,1,L,0.21068067226890755,0.25925,0.22874999999999998,0.24399999999999997
4,10,19,1,3,25.25399999999998,20,106,25,28,31,19,26.96199999999998,7.197999999999994,0.488,44.956999999999965,20,13,5,17,113,28,5,166,5,0.5,36,5.25,1,L,0.2386017699115044,0.25707142857142856,0.09759999999999999,0.27082530120481924
4,10,20,1,2,18.055999999999987,20,91,53,54,10,3,19.519999999999985,4.7579999999999965,11.406999999999991,10.735999999999992,20,12,17,16,97,18,43,40,4,0,20,5,1,L,0.20123711340206185,0.2643333333333333,0.2652790697674418,0.26839999999999997
4,11,21,1,12,10.918999999999992,17,54,48,37,3,47,11.71199999999999,2.561999999999998,11.589999999999991,2.8669999999999978,20,8,16,9,57,10,49,11,5,0.5,36,5.25,1,L,0.2054736842105263,0.2562,0.23653061224489794,0.26063636363636355
4,11,22,1,15,25.43699999999998,17,120,19,24,106,102,25.49799999999998,5.245999999999996,13.724999999999989,1.585999999999999,18,12,15,5,121,20,57,6,6,0,16,4,1,L,0.2107272727272727,0.2623,0.2407894736842105,0.2643333333333333
5,1,1,1,15,68.86900000000051,12,293,21,33,19,69,68.99100000000051,3.2939999999999974,1.0369999999999995,0.8539999999999996,13,8,4,2,294,9,5,2,6,0,21,5.25,1,L,0.23466326530612241,0.3659999999999999,0.2074,0.42699999999999994
5,1,2,1,1,26.47399999999998,20,132,79,81,82,49,27.14499999999998,1.0979999999999994,0.6099999999999999,5.184999999999996,20,5,4,12,138,6,4,21,3,0.5,22,3.25,1,L,0.19670289855072462,0.183,0.1525,0.2469047619047619
5,2,3,1,2,68.68600000000049,15,286,17,97,58,53,86.13200000000047,0.244,0.061,0.061,20,2,1,1,352,3,1,1,4,0,16,4,1,L,0.2446931818181818,0.08133333333333333,0.061,0.061
5,2,4,1,11,19.397999999999985,19,94,62,73,69,68,31.719999999999978,0.5489999999999999,0.305,0.122,20,1,3,2,144,1,3,2,4,0.5,27,3.75,1,L,0.22027777777777777,0.5489999999999999,0.10166666666666667,0.061
5,3,5,1,12,27.510999999999978,17,114,47,38,39,6,28.974999999999977,5.7949999999999955,1.7689999999999988,5.428999999999996,20,11,8,13,121,22,10,21,5,0.5,36,5.25,1,L,0.23946280991735533,0.26340909090909087,0.1769,0.2585238095238095
5,3,6,1,8,51.91099999999996,13,227,13,99,33,101,60.14599999999995,0.122,1.0369999999999995,1.0369999999999995,20,1,4,5,259,1,4,5,2,0,15,3.75,1,L,0.2322239382239382,0.122,0.25925,0.20739999999999997
5,4,7,1,1,38.85699999999997,15,173,76,74,28,15,39.89399999999997,2.1959999999999984,6.953999999999994,1.463999999999999,19,9,15,8,180,14,27,10,3,0,17,4.25,1,L,0.22163333333333332,0.15685714285714286,0.2575555555555555,0.1464
5,4,8,1,7,31.902999999999974,10,151,5,12,8,39,31.963999999999974,0.9759999999999995,16.16499999999999,0.061,11,5,16,1,152,5,58,1,6,0.5,41,5.75,1,L,0.2102894736842105,0.19519999999999998,0.2787068965517241,0.061
5,5,9,1,15,15.127999999999988,19,89,13,23,24,15,17.689999999999987,0.183,0.305,7.380999999999994,20,2,2,14,97,2,2,30,6,1,72,6,1,L,0.18237113402061855,0.0915,0.1525,0.2460333333333333
5,5,10,1,13,19.885999999999985,18,85,110,115,114,35,20.129999999999985,1.585999999999999,2.1349999999999985,2.805999999999998,20,6,10,7,87,9,13,9,2,0.5,17,2.75,1,L,0.23137931034482756,0.17622222222222222,0.16423076923076924,0.3117777777777777
5,6,11,1,8,19.275999999999986,20,96,52,34,17,21,21.227999999999984,15.493999999999987,13.23699999999999,6.709999999999995,20,18,17,14,99,64,59,27,2,0,21,5.25,1,L,0.2144242424242424,0.24209374999999997,0.2243559322033898,0.24851851851851847
5,6,12,1,11,13.907999999999989,11,69,70,62,68,10,14.273999999999988,0.7929999999999997,3.9649999999999967,14.578999999999988,13,4,14,14,71,4,22,65,4,0.5,30,4.5,1,L,0.20104225352112676,0.19824999999999998,0.18022727272727274,0.22429230769230768
5,7,13,1,14,29.157999999999976,11,144,90,89,86,91,29.218999999999976,0.305,0.427,0.061,12,2,4,1,145,2,4,1,3,1,36,3,1,L,0.2015103448275862,0.1525,0.10675,0.061
5,7,14,1,3,20.434999999999985,18,96,32,34,36,35,21.044999999999984,0.9149999999999996,0.7319999999999998,1.7689999999999988,20,4,2,4,100,4,2,5,5,1,60,5,1,L,0.21044999999999997,0.22875,0.3659999999999999,0.35379999999999995
5,8,15,1,12,68.13700000000043,14,276,47,37,39,12,69.84500000000043,1.0369999999999995,2.622999999999998,8.051999999999994,20,8,10,14,283,9,11,30,5,0.5,36,5.25,1,L,0.24680212014134273,0.11522222222222223,0.23845454545454545,0.26839999999999997
5,8,16,1,2,79.78800000000177,16,343,83,60,50,19,80.94700000000178,4.6969999999999965,0.122,1.8909999999999987,20,14,2,7,349,20,2,8,4,0,17,4.25,1,L,0.2319398280802292,0.23484999999999998,0.061,0.23637499999999997
5,9,17,1,12,12.32199999999999,20,62,47,68,1,7,19.336999999999986,7.197999999999994,13.23699999999999,0.488,20,13,17,3,91,26,58,3,5,0,21,5.25,1,L,0.2124945054945055,0.2768461538461538,0.22822413793103447,0.16266666666666665
5,9,18,1,13,66.42900000000023,12,283,112,113,119,51,67.40500000000023,0.305,0.244,0.061,16,2,2,1,287,2,2,1,2,0.5,16,2.5,1,L,0.23486062717770032,0.1525,0.122,0.061
5,10,19,1,14,7.441999999999994,20,30,13,95,87,85,16.896999999999988,0.8539999999999996,0.061,1.585999999999999,20,5,1,7,66,5,1,10,3,0.5,24,3.75,1,L,0.2560151515151515,0.1708,0.061,0.1586
5,10,20,1,3,86.80300000000258,13,359,3,6,28,35,102.29700000000257,2.439999999999998,0.305,1.7079999999999989,20,10,3,11,427,11,3,13,5,0,22,5.5,1,L,0.23957142857142855,0.2218181818181818,0.10166666666666667,0.13138461538461538
5,11,21,1,7,32.75699999999998,17,132,7,12,32,26,32.87899999999998,1.646999999999999,3.3549999999999973,3.1719999999999975,18,6,8,12,133,7,16,16,6,0,22,5.5,1,L,0.24721052631578944,0.23528571428571426,0.20968749999999997,0.19824999999999998
5,11,22,1,2,64.59900000000002,17,299,50,52,16,77,64.84300000000002,17.018999999999988,0.9759999999999995,8.844999999999994,18,18,6,13,300,77,7,24,4,0,17,4.25,1,L,0.2161433333333333,0.221025974025974,0.13942857142857143,0.36854166666666655
6,1,1,1,3,15.249999999999988,20,77,27,25,2,33,16.652999999999988,1.2199999999999993,6.648999999999995,0.7929999999999997,20,6,15,5,85,6,32,5,5,0.5,36,5.25,1,L,0.19591764705882353,0.20333333333333334,0.20778125,0.1586
6,1,2,1,12,22.752999999999982,18,111,44,37,54,42,23.72899999999998,1.0369999999999995,2.0739999999999985,0.6709999999999998,20,5,4,2,118,6,4,2,5,0.5,34,4.75,1,L,0.20109322033898303,0.17283333333333334,0.5184999999999997,0.3355
6,2,3,1,13,6.160999999999995,14,35,14,112,111,118,21.532999999999983,0.122,1.1589999999999994,0.488,20,2,6,3,110,2,7,3,2,0.5,18,3,1,L,0.19575454545454543,0.061,0.16557142857142856,0.16266666666666665
6,2,4,1,1,38.67399999999997,20,181,34,74,75,67,40.01599999999997,0.366,0.427,5.7339999999999955,20,2,3,12,186,2,3,25,3,0,15,3.75,1,L,0.21513978494623653,0.183,0.14233333333333334,0.22935999999999998
6,3,5,1,2,14.029999999999989,18,87,58,55,83,12,14.883999999999988,2.8669999999999978,11.95599999999999,6.648999999999995,20,5,15,15,93,5,52,29,4,0,17,4.25,1,L,0.16004301075268818,0.5733999999999998,0.2299230769230769,0.2292758620689655
6,3,6,1,14,30.682999999999975,20,160,37,89,85,61,48.61699999999996,0.183,0.061,0.6099999999999999,20,2,1,2,244,2,1,2,3,0,15,3.75,1,L,0.19924999999999998,0.0915,0.061,0.305
6,4,7,1,14,47.33599999999996,16,202,91,93,94,95,48.18999999999996,0.183,3.2329999999999974,0.9759999999999995,19,1,9,5,205,1,13,5,3,1,36,3,1,L,0.2350731707317073,0.183,0.24869230769230766,0.19519999999999998
6,4,8,1,13,19.885999999999985,19,94,110,37,40,6,20.373999999999985,8.112999999999994,1.9519999999999986,4.7579999999999965,20,13,7,11,98,29,8,20,2,0,18,4.5,1,L,0.20789795918367346,0.2797586206896551,0.24399999999999997,0.23789999999999997
6,5,9,1,7,18.787999999999986,19,89,8,4,3,6,18.848999999999986,1.463999999999999,3.3549999999999973,0.122,20,6,8,1,90,8,13,1,6,1,72,6,1,L,0.20943333333333333,0.183,0.25807692307692304,0.122
6,5,10,1,3,11.650999999999991,18,58,68,15,16,23,41.41899999999997,8.539999999999994,5.184999999999996,8.966999999999993,20,16,17,16,175,30,18,39,5,0.5,40,5.5,1,L,0.23667999999999997,0.2846666666666666,0.2880555555555555,0.2299230769230769
6,6,11,1,15,11.71199999999999,14,57,14,84,38,75,11.77299999999999,10.430999999999992,0.305,5.245999999999996,15,15,2,12,58,42,2,23,6,0,17,4.25,1,L,0.20298275862068965,0.24835714285714283,0.1525,0.2280869565217391
6,6,12,1,8,55.143999999999956,11,215,100,102,107,104,55.265999999999956,1.2199999999999993,0.122,0.366,12,3,1,2,216,3,1,2,2,1,24,2,1,L,0.2558611111111111,0.4066666666666665,0.122,0.183
6,7,13,1,7,13.35899999999999,19,65,1,3,8,11,14.639999999999988,0.122,1.646999999999999,1.463999999999999,20,2,6,4,73,2,6,5,6,1,72,6,1,L,0.20054794520547944,0.061,0.27449999999999997,0.2928
6,7,14,1,15,10.491999999999992,15,57,24,19,21,23,11.95599999999999,0.9149999999999996,0.6709999999999998,1.524999999999999,20,3,6,6,63,4,6,7,6,1,72,6,1,L,0.18977777777777777,0.22875,0.11183333333333333,0.21785714285714286
6,8,15,1,7,13.846999999999989,15,66,11,81,12,73,13.907999999999989,8.112999999999994,0.427,2.8669999999999978,16,13,2,7,67,30,2,10,6,0,18,4.5,1,L,0.2075820895522388,0.27043333333333325,0.2135,0.28669999999999995
6,8,16,1,11,46.420999999999964,15,189,61,44,19,14,49.10499999999996,0.6709999999999998,16.04299999999999,5.428999999999996,20,5,16,14,200,5,57,23,4,0,21,5.25,1,L,0.24552499999999997,0.13419999999999999,0.2814561403508772,0.23604347826086955
6,9,17,1,11,26.47399999999998,12,124,3,5,108,42,112.66700000000249,4.147999999999997,0.183,0.427,20,17,2,1,465,24,2,1,4,0,19,4.75,1,L,0.24229462365591395,0.17283333333333334,0.0915,0.427
6,9,18,1,15,25.31499999999998,19,129,17,30,13,23,25.37599999999998,3.1719999999999975,0.305,2.0739999999999985,20,9,2,6,130,12,2,8,6,0.5,41,5.75,1,L,0.19519999999999998,0.2643333333333333,0.1525,0.25925
6,10,19,1,14,12.87099999999999,19,57,92,87,103,56,13.23699999999999,2.0739999999999985,13.907999999999989,11.162999999999991,20,6,15,12,60,7,52,38,3,0,12,3,1,L,0.22061666666666666,0.29628571428571426,0.2674615384615384,0.29376315789473684
6,10,20,1,11,80.58100000000186,11,347,61,44,63,112,80.64200000000187,4.818999999999996,3.9649999999999967,1.585999999999999,12,13,10,10,348,21,16,12,4,0,15,3.75,1,L,0.23172988505747125,0.22947619047619047,0.24781249999999996,0.13216666666666665
6,11,21,1,15,28.242999999999977,17,123,15,23,21,19,28.303999999999977,1.7079999999999989,1.7689999999999988,11.650999999999991,18,4,4,13,124,4,5,49,6,1,72,6,1,L,0.228258064516129,0.4269999999999999,0.35379999999999995,0.2377755102040816
6,11,22,1,7,7.9299999999999935,19,40,8,1,5,103,9.515999999999993,0.183,2.439999999999998,1.4029999999999991,20,2,6,5,49,2,6,7,6,0.5,38,5,1,L,0.19420408163265304,0.0915,0.4066666666666665,0.20042857142857143
7,1,1,1,15,54.655999999999956,12,227,14,58,21,17,54.716999999999956,2.622999999999998,1.2199999999999993,0.244,13,10,6,1,228,12,6,1,6,0.5,40,5.5,1,L,0.23998684210526314,0.2185833333333333,0.20333333333333334,0.244
7,1,2,1,8,44.590999999999966,17,182,100,98,107,1,44.834999999999965,1.2199999999999993,1.1589999999999994,7.136999999999994,18,5,8,14,183,5,8,30,2,0.5,18,3,1,L,0.24499999999999997,0.244,0.144875,0.23789999999999997
7,2,3,1,1,36.05099999999997,17,163,83,23,76,74,38.42999999999997,18.177999999999987,0.244,0.6099999999999999,20,18,3,3,174,84,3,3,3,0.5,24,3.75,1,L,0.22086206896551722,0.21640476190476188,0.08133333333333333,0.20333333333333334
7,2,4,1,11,23.118999999999982,19,103,67,68,38,72,29.584999999999976,1.524999999999999,7.9299999999999935,1.9519999999999986,20,5,15,7,137,7,42,9,4,0.5,29,4.25,1,L,0.21594890510948903,0.21785714285714286,0.18880952380952382,0.21688888888888888
7,3,5,1,15,30.072999999999976,14,137,13,20,58,56,30.133999999999975,1.8909999999999987,3.659999999999997,2.0739999999999985,15,5,11,6,138,9,16,8,6,0,20,5,1,L,0.2183623188405797,0.21011111111111108,0.22874999999999993,0.25925
7,3,6,1,12,35.318999999999974,18,150,44,38,42,71,35.806999999999974,1.8299999999999987,0.366,5.245999999999996,20,6,4,9,155,7,4,12,5,0.5,34,4.75,1,L,0.23101290322580642,0.2614285714285714,0.0915,0.43716666666666654
7,4,7,1,7,24.88799999999998,15,117,2,8,4,61,24.94899999999998,2.1959999999999984,7.441999999999994,1.2809999999999993,16,8,14,2,118,9,27,2,6,0.5,40,5.5,1,L,0.2114322033898305,0.24399999999999997,0.2756296296296296,0.6404999999999996
7,4,8,1,12,35.684999999999974,17,148,14,49,37,22,51.91099999999996,0.122,0.305,1.8909999999999987,20,1,2,8,226,1,2,10,5,0,21,5.25,1,L,0.2296946902654867,0.122,0.1525,0.1891
7,5,9,1,13,27.693999999999978,16,119,117,113,109,114,28.547999999999977,0.8539999999999996,0.305,0.183,19,5,3,1,122,6,3,1,2,1,24,2,1,L,0.23399999999999999,0.14233333333333334,0.10166666666666667,0.183
7,5,10,1,8,73.87100000000109,15,322,106,98,44,43,75.09100000000109,1.4029999999999991,1.2809999999999993,5.306999999999996,20,6,4,13,328,7,5,22,2,0,14,3.5,1,L,0.22893597560975606,0.20042857142857143,0.2562,0.2412272727272727
7,6,11,1,14,13.968999999999989,18,76,94,91,54,6,14.334999999999988,2.1349999999999985,18.421999999999986,1.0369999999999995,20,7,18,5,79,9,75,5,3,0,16,4,1,L,0.18145569620253163,0.2372222222222222,0.24562666666666663,0.20739999999999997
7,6,12,1,8,25.19299999999998,20,114,70,103,97,13,28.120999999999977,1.8299999999999987,0.122,4.6969999999999965,20,8,2,13,127,9,2,20,2,0,14,3.5,1,L,0.2214251968503937,0.20333333333333334,0.061,0.23484999999999995
7,7,13,1,13,15.981999999999987,19,82,115,21,118,13,16.896999999999988,12.93199999999999,0.9759999999999995,6.160999999999995,20,15,5,13,89,47,6,27,2,0,16,4,1,L,0.18985393258426966,0.2751489361702127,0.16266666666666665,0.22818518518518519
7,7,14,1,2,47.15299999999996,14,221,60,55,50,12,47.45799999999996,2.1959999999999984,2.2569999999999983,3.537999999999997,16,9,8,14,223,12,11,16,4,0.5,30,4.5,1,L,0.21281614349775782,0.183,0.20518181818181816,0.221125
7,8,15,1,1,21.593999999999983,15,91,2,42,82,45,73.99299999999994,0.427,0.122,0.244,20,2,1,1,317,2,1,1,3,0,19,4.75,1,L,0.23341640378548895,0.2135,0.122,0.244
7,8,16,1,14,15.981999999999987,19,81,93,105,30,63,18.482999999999986,27.937999999999978,7.319999999999994,2.3179999999999983,20,18,18,8,90,116,27,8,3,0,14,3.5,1,L,0.20536666666666667,0.24084482758620687,0.2711111111111111,0.2897499999999999
7,9,17,1,3,30.133999999999975,20,137,36,25,3,1,30.743999999999975,0.183,7.746999999999994,7.136999999999994,20,2,16,15,139,2,35,32,5,0,22,5.5,1,L,0.22117985611510788,0.0915,0.22134285714285712,0.22303125
7,9,18,1,11,40.44299999999997,19,180,71,72,62,67,40.50399999999997,0.9759999999999995,1.8909999999999987,1.1589999999999994,20,2,6,5,181,2,7,5,4,1,48,4,1,L,0.22377900552486185,0.4879999999999999,0.27014285714285713,0.23179999999999998
7,10,19,1,3,28.364999999999977,12,115,26,34,31,28,29.340999999999976,1.0979999999999994,2.3789999999999982,3.2939999999999974,15,5,7,12,119,6,9,18,5,1,60,5,1,L,0.246563025210084,0.183,0.2643333333333333,0.183
7,10,20,1,2,31.902999999999974,19,127,55,60,49,10,33.793999999999976,0.183,0.122,2.1349999999999985,20,2,1,7,134,2,1,13,4,0.5,30,4.5,1,L,0.25219402985074624,0.0915,0.122,0.16423076923076924
7,11,21,1,3,65.02600000000007,11,260,25,29,74,26,66.91700000000007,0.244,3.476999999999997,3.0499999999999976,16,2,9,13,267,2,18,16,5,0.5,33,4.5,1,L,0.250625468164794,0.122,0.19316666666666665,0.190625
7,11,22,1,14,99.49100000000405,13,433,38,22,40,51,106.93300000000404,7.441999999999994,4.269999999999997,0.061,20,14,15,1,465,24,19,1,3,0,20,5,1,L,0.22996344086021503,0.31008333333333327,0.22473684210526312,0.061
8,1,1,1,15,30.316999999999975,10,130,20,24,21,19,30.865999999999975,5.7949999999999955,1.0979999999999994,1.1589999999999994,15,14,6,2,135,27,7,2,6,1,72,6,1,L,0.228637037037037,0.21462962962962961,0.15685714285714286,0.5794999999999999
8,1,2,1,1,85.64400000000245,13,354,5,11,62,61,87.04700000000246,11.83399999999999,0.8539999999999996,5.977999999999995,18,18,4,16,361,47,5,28,3,0,20,5,1,L,0.24112742382271465,0.25178723404255315,0.1708,0.2135
8,2,3,1,15,28.364999999999977,12,135,24,17,38,20,29.523999999999976,2.0739999999999985,12.93199999999999,0.6099999999999999,16,4,15,4,140,4,48,4,6,0.5,41,5.75,1,L,0.21088571428571426,0.5184999999999998,0.26941666666666664,0.1525
8,2,4,1,3,61.06099999999995,12,265,34,5,105,25,61.73199999999995,1.2809999999999993,0.9759999999999995,0.183,16,3,2,1,269,4,2,1,5,0,18,4.5,1,L,0.22948698884758362,0.3202499999999999,0.488,0.183
8,3,5,1,12,18.116999999999987,19,89,113,120,83,110,53.923999999999964,2.744999999999998,2.744999999999998,0.427,20,11,10,3,207,13,15,3,5,0.5,15,2.25,1,L,0.26050241545893715,0.21115384615384614,0.183,0.14233333333333334
8,3,6,1,2,12.80999999999999,20,69,51,105,108,103,17.628999999999987,5.001999999999996,14.212999999999989,2.561999999999998,20,9,15,7,88,15,44,8,4,0.5,16,2.5,1,L,0.20032954545454545,0.33346666666666663,0.32302272727272724,0.3202499999999999
8,4,7,1,12,34.159999999999975,18,154,46,42,40,37,35.318999999999974,0.427,3.537999999999997,0.122,20,1,9,1,162,1,12,1,5,1,60,5,1,L,0.2180185185185185,0.427,0.2948333333333333,0.122
8,4,8,1,3,14.334999999999988,14,67,36,63,93,105,14.639999999999988,7.441999999999994,5.367999999999996,1.2809999999999993,17,16,14,5,70,33,29,6,5,0,14,3.5,1,L,0.20914285714285713,0.22551515151515147,0.18510344827586206,0.2135
8,5,9,1,15,37.33199999999997,12,135,23,13,15,80,37.39299999999997,0.244,15.005999999999988,0.6099999999999999,13,2,18,2,136,2,60,2,6,0.5,39,5.25,1,L,0.2749485294117647,0.122,0.2501,0.30499999999999994
8,5,10,1,14,24.70499999999998,19,123,30,87,89,86,28.242999999999977,0.427,0.183,0.305,20,2,2,2,135,2,2,2,3,0.5,23,3.5,1,L,0.2092074074074074,0.2135,0.0915,0.1525
8,6,11,1,7,21.532999999999983,20,100,1,12,4,10,21.593999999999983,4.086999999999997,9.393999999999993,1.3419999999999992,20,11,17,7,101,13,48,7,6,1,72,6,1,L,0.2138019801980198,0.3143846153846153,0.19570833333333332,0.1917142857142857
8,6,12,1,1,8.966999999999993,19,50,105,13,75,76,23.91199999999998,5.184999999999996,0.9149999999999996,0.061,20,16,2,1,117,18,2,1,3,0,14,3.5,1,L,0.20437606837606836,0.2880555555555555,0.4574999999999998,0.061
8,7,13,1,12,67.83200000000039,15,307,82,41,38,39,69.9670000000004,0.9759999999999995,0.366,0.8539999999999996,20,4,3,6,322,4,3,6,5,0.5,33,4.5,1,L,0.2172888198757764,0.244,0.122,0.14233333333333334
8,7,14,1,15,49.04399999999996,10,186,15,22,19,24,49.10499999999996,0.427,16.22599999999999,0.061,11,5,16,1,187,5,58,1,6,1,72,6,1,L,0.2625935828877005,0.0854,0.2797586206896551,0.061
8,8,15,1,2,67.58800000000036,9,266,57,59,55,49,68.19800000000036,0.061,2.1349999999999985,9.698999999999993,12,1,7,12,269,1,9,34,4,1,48,4,1,L,0.2535241635687732,0.061,0.23722222222222222,0.2852647058823529
8,8,16,1,13,18.421999999999986,20,83,120,114,31,110,19.458999999999985,2.9279999999999977,1.8299999999999987,7.624999999999994,20,6,7,10,88,7,8,20,2,0.5,17,2.75,1,L,0.221125,0.41828571428571415,0.22875,0.38124999999999987
8,9,17,1,15,31.719999999999974,20,149,24,45,18,22,31.780999999999974,8.173999999999994,0.488,0.244,20,14,2,3,150,34,3,3,6,0.5,41,5.75,1,L,0.2118733333333333,0.24041176470588232,0.16266666666666665,0.08133333333333333
8,9,18,1,7,28.181999999999977,13,121,8,4,7,10,30.316999999999975,2.744999999999998,1.463999999999999,0.183,20,5,7,1,128,7,7,1,6,1,72,6,1,L,0.23685156249999997,0.39214285714285707,0.20914285714285713,0.183
8,10,19,1,14,35.745999999999974,17,180,89,86,85,24,38.55199999999997,0.9149999999999996,0.427,2.0739999999999985,20,3,1,8,190,3,1,9,3,0.5,24,3.75,1,L,0.20290526315789473,0.3049999999999999,0.427,0.23044444444444442
8,10,20,1,7,17.201999999999988,18,88,4,6,7,10,17.567999999999987,0.061,2.1959999999999984,0.122,20,1,6,2,90,1,7,2,6,1,72,6,1,L,0.19519999999999998,0.061,0.31371428571428567,0.061
8,11,21,1,15,24.39999999999998,18,104,19,23,18,17,25.86399999999998,0.7319999999999998,5.367999999999996,4.6969999999999965,20,4,13,11,113,5,22,21,6,1,72,6,1,L,0.22888495575221238,0.1464,0.244,0.22366666666666662
8,11,22,1,14,51.17899999999996,10,204,91,86,120,67,51.97199999999996,0.366,21.593999999999983,0.9759999999999995,13,1,18,5,207,1,82,6,3,0,12,3,1,L,0.25107246376811593,0.366,0.2633414634146341,0.16266666666666665
9,1,1,1,13,36.29499999999997,19,167,116,119,109,120,36.90499999999997,1.8299999999999987,2.0739999999999985,1.646999999999999,20,8,8,7,173,10,11,10,2,1,24,2,1,L,0.2133236994219653,0.183,0.18854545454545454,0.16469999999999999
9,1,2,1,15,19.641999999999985,18,91,16,22,15,21,21.105999999999984,1.2199999999999993,2.439999999999998,1.1589999999999994,20,4,10,5,94,5,13,5,6,1,72,6,1,L,0.224531914893617,0.244,0.18769230769230769,0.23179999999999998
9,2,3,1,2,49.65399999999996,8,189,51,43,1,55,51.17899999999996,7.380999999999994,4.6969999999999965,6.038999999999995,14,16,10,15,195,29,16,25,4,0,19,4.75,1,L,0.26245641025641026,0.2545172413793103,0.29356249999999995,0.24155999999999997
9,2,4,1,15,52.09399999999996,11,236,14,24,18,111,52.15499999999996,0.305,0.7319999999999998,7.624999999999994,12,2,2,11,237,2,2,23,6,0.5,38,5,1,L,0.2200632911392405,0.1525,0.366,0.33152173913043476
9,3,5,1,1,40.07699999999997,19,192,78,74,79,77,41.05299999999997,0.061,0.122,2.744999999999998,20,1,1,12,197,1,1,15,3,1,36,3,1,L,0.20839086294416242,0.061,0.122,0.18299999999999997
9,3,6,1,14,14.639999999999988,15,69,96,89,87,104,16.957999999999988,0.183,1.2199999999999993,1.7689999999999988,20,1,5,7,77,1,5,7,3,0.5,20,2.75,1,L,0.22023376623376623,0.183,0.244,0.25271428571428567
9,4,7,1,12,18.482999999999986,15,84,47,43,38,8,21.349999999999984,0.061,0.366,1.1589999999999994,20,1,2,3,99,1,2,4,5,0.5,36,5.25,1,L,0.21565656565656563,0.061,0.183,0.28974999999999995
9,4,8,1,13,61.42699999999995,9,277,116,112,110,119,61.54899999999995,0.366,2.3179999999999983,1.646999999999999,11,1,9,10,279,1,10,11,2,1,24,2,1,L,0.22060573476702505,0.366,0.23179999999999995,0.14972727272727274
9,5,9,1,14,22.386999999999983,12,90,95,88,87,85,23.72899999999998,0.6709999999999998,0.061,1.1589999999999994,20,5,1,4,98,5,1,5,3,1,36,3,1,L,0.24213265306122447,0.13419999999999999,0.061,0.23179999999999995
9,5,10,1,12,10.552999999999992,16,52,18,40,20,105,36.23399999999997,0.488,0.244,0.427,20,3,2,3,159,3,2,3,5,0,19,4.75,1,L,0.22788679245283017,0.16266666666666665,0.122,0.14233333333333334
9,6,11,1,12,29.340999999999976,13,123,45,42,3,75,30.560999999999975,3.842999999999997,7.9299999999999935,2.500999999999998,15,13,15,6,125,20,32,8,5,0,19,4.75,1,L,0.24448799999999998,0.19215,0.24781249999999996,0.31262499999999993
9,6,12,1,3,76.06700000000134,11,343,24,36,23,25,77.53100000000134,0.6099999999999999,4.513999999999997,2.1349999999999985,17,6,12,6,349,6,16,7,5,0,22,5.5,1,L,0.22215186246418336,0.10166666666666667,0.28212499999999996,0.30499999999999994
9,7,13,1,3,50.93499999999996,13,219,32,35,16,116,60.81699999999995,0.305,0.7319999999999998,0.6099999999999999,20,2,2,1,261,2,2,1,5,0,18,4.5,1,L,0.23301532567049807,0.1525,0.366,0.6099999999999999
9,7,14,1,8,46.054999999999964,18,205,3,2,106,82,55.692999999999955,28.974999999999977,1.7689999999999988,0.7929999999999997,20,19,7,4,248,124,8,5,2,0,17,4.25,1,L,0.22456854838709675,0.23366935483870965,0.221125,0.1586
9,8,15,1,13,30.194999999999975,19,138,114,116,109,15,30.682999999999975,0.427,0.366,6.8319999999999945,20,3,2,12,141,4,2,32,2,0.5,18,3,1,L,0.21760992907801416,0.10675,0.183,0.2135
9,8,16,1,11,21.105999999999984,20,111,62,70,65,106,21.715999999999983,0.7929999999999997,1.2809999999999993,10.613999999999992,20,4,4,15,116,4,4,48,4,0.5,26,3.5,1,L,0.18720689655172412,0.19824999999999998,0.32025,0.22112499999999996
9,9,17,1,11,24.58299999999998,19,96,70,64,71,65,24.70499999999998,0.366,0.8539999999999996,3.476999999999997,20,2,4,14,97,2,4,20,4,1,48,4,1,L,0.25469072164948453,0.183,0.2135,0.17385
9,9,18,1,2,37.08799999999997,19,158,56,54,51,48,39.71099999999997,0.305,0.9149999999999996,6.404999999999995,20,1,4,8,168,1,5,17,4,0.5,29,4.25,1,L,0.23637499999999997,0.305,0.183,0.37676470588235283
9,10,19,1,3,31.719999999999974,18,146,34,31,26,21,33.061999999999976,1.2809999999999993,0.122,1.585999999999999,20,5,1,5,152,7,1,7,5,0.5,36,5.25,1,L,0.21751315789473682,0.183,0.122,0.22657142857142856
9,10,20,1,13,31.963999999999974,14,134,109,120,114,116,32.08599999999998,1.2809999999999993,0.5489999999999999,1.8299999999999987,15,4,3,8,135,4,3,9,2,1,24,2,1,L,0.23767407407407407,0.32025,0.183,0.2033333333333333
9,11,21,1,12,30.316999999999975,12,150,48,40,39,13,30.621999999999975,2.500999999999998,1.463999999999999,15.249999999999988,13,6,6,15,151,7,6,60,5,0.5,36,5.25,1,L,0.20279470198675495,0.35728571428571415,0.244,0.25416666666666665
9,11,22,1,7,30.194999999999975,14,119,2,6,34,76,30.255999999999975,5.7949999999999955,6.587999999999995,3.842999999999997,15,14,13,8,120,30,24,10,6,0,20,5,1,L,0.2521333333333333,0.19316666666666665,0.27449999999999997,0.3842999999999999
10,1,1,1,13,11.650999999999991,16,42,118,120,112,65,12.38299999999999,0.7929999999999997,3.9649999999999967,17.323999999999987,19,2,11,15,45,2,16,79,2,0.5,16,2.5,1,L,0.27517777777777774,0.39649999999999985,0.24781249999999996,0.2192911392405063
10,1,2,1,7,13.11499999999999,16,73,7,5,8,26,13.54199999999999,6.770999999999995,0.9149999999999996,55.875999999999955,20,14,5,16,77,34,5,242,6,0.5,41,5.75,1,L,0.17587012987012987,0.1991470588235294,0.183,0.23089256198347105
10,2,3,1,15,25.43699999999998,14,126,13,20,58,15,25.49799999999998,0.122,5.367999999999996,10.003999999999992,15,1,12,16,127,1,23,41,6,0.5,40,5.5,1,L,0.20077165354330706,0.122,0.23339130434782607,0.24399999999999997
10,2,4,1,12,50.75199999999996,9,221,39,40,41,92,51.42299999999996,7.319999999999994,1.646999999999999,2.0129999999999986,12,16,6,7,224,31,7,11,5,0.5,33,4.5,1,L,0.22956696428571427,0.2361290322580645,0.2352857142857143,0.183
10,3,5,1,13,12.62699999999999,16,55,116,110,117,66,12.74899999999999,7.990999999999993,7.685999999999994,9.393999999999993,17,15,15,16,56,39,36,39,2,0.5,16,2.5,1,L,0.22766071428571427,0.2048974358974359,0.2135,0.24087179487179486
10,3,6,1,2,18.299999999999986,18,92,13,45,54,53,33.671999999999976,4.330999999999997,0.305,0.061,20,11,2,1,156,16,2,1,4,0,19,4.75,1,L,0.21584615384615383,0.27068749999999997,0.1525,0.061
10,4,7,1,8,42.57799999999997,13,191,99,97,19,87,43.736999999999966,3.476999999999997,12.80999999999999,14.578999999999988,16,15,18,17,194,18,62,72,2,0,13,3.25,1,L,0.2254484536082474,0.19316666666666665,0.20661290322580644,0.2024861111111111
10,4,8,1,11,21.410999999999984,17,113,62,67,46,68,29.64599999999998,1.7079999999999989,18.116999999999987,0.9149999999999996,20,6,17,5,161,7,92,5,4,0.5,29,4.25,1,L,0.1841366459627329,0.2439999999999999,0.19692391304347825,0.183
10,5,9,1,7,11.589999999999991,16,57,1,5,7,120,11.83399999999999,1.3419999999999992,3.537999999999997,18.238999999999987,18,3,11,13,59,4,17,66,6,0.5,38,5,1,L,0.20057627118644067,0.33549999999999985,0.20811764705882352,0.2763484848484848
10,5,10,1,15,12.07799999999999,15,66,13,18,16,17,13.11499999999999,1.7079999999999989,0.244,10.552999999999992,19,7,2,13,70,7,2,34,6,1,72,6,1,L,0.18735714285714286,0.244,0.122,0.3103823529411764
10,6,11,1,15,41.35799999999997,17,188,18,16,17,107,41.41899999999997,0.488,10.491999999999992,0.9759999999999995,18,3,17,5,189,3,43,5,6,0.5,38,5,1,L,0.21914814814814812,0.16266666666666665,0.24399999999999997,0.19519999999999998
10,6,12,1,1,23.54599999999998,17,119,80,84,75,77,24.70499999999998,0.244,0.305,0.488,19,2,3,3,121,2,3,3,3,1,36,3,1,L,0.20417355371900825,0.122,0.10166666666666667,0.16266666666666665
10,7,13,1,3,30.438999999999975,16,126,35,33,29,102,31.109999999999975,1.8909999999999987,0.9759999999999995,2.683999999999998,19,8,4,9,129,9,4,14,5,0.5,32,4.25,1,L,0.2411627906976744,0.2101111111111111,0.244,0.1917142857142857
10,7,14,1,12,14.029999999999989,17,65,48,22,63,46,16.16499999999999,14.761999999999988,0.122,1.4029999999999991,20,18,1,8,79,61,1,10,5,0,20,5,1,L,0.20462025316455695,0.24199999999999997,0.122,0.1403
10,8,15,1,12,27.998999999999977,20,117,46,70,86,93,29.889999999999976,11.71199999999999,6.343999999999995,3.537999999999997,20,16,15,12,128,45,21,15,5,0,15,3.75,1,L,0.23351562499999998,0.26026666666666665,0.30209523809523803,0.23586666666666664
10,8,16,1,7,14.761999999999988,17,68,7,8,9,10,15.188999999999988,2.0739999999999985,0.5489999999999999,0.6709999999999998,19,7,1,5,70,9,1,5,6,1,72,6,1,L,0.21698571428571425,0.23044444444444442,0.5489999999999999,0.13419999999999999
10,9,17,1,11,38.24699999999997,18,164,69,62,71,88,40.19899999999997,1.4029999999999991,4.025999999999997,5.7339999999999955,20,6,9,11,170,6,13,23,4,0.5,27,3.75,1,L,0.2364647058823529,0.23383333333333334,0.30969230769230766,0.2493043478260869
10,9,18,1,12,24.94899999999998,11,122,41,48,46,44,27.510999999999978,0.6709999999999998,5.001999999999996,0.488,20,2,12,2,134,2,20,2,5,1,60,5,1,L,0.20530597014925372,0.3354999999999999,0.2501,0.244
10,10,19,1,8,24.70499999999998,20,125,105,108,3,94,29.523999999999976,0.305,84.24100000000229,2.622999999999998,20,2,18,6,142,2,346,9,2,0,13,3.25,1,L,0.20791549295774647,0.1525,0.2434710982658959,0.2914444444444444
10,10,20,1,12,45.261999999999965,15,197,42,22,37,20,47.09199999999996,0.5489999999999999,1.9519999999999986,2.9279999999999977,20,2,5,9,206,2,7,16,5,0,22,5.5,1,L,0.22860194174757278,0.27449999999999997,0.27885714285714286,0.18299999999999997
10,11,21,1,15,15.432999999999987,14,81,13,21,14,90,15.554999999999987,2.2569999999999983,2.561999999999998,1.9519999999999986,15,10,7,6,82,13,8,6,6,0.5,39,5.25,1,L,0.18969512195121951,0.17361538461538462,0.32025,0.3253333333333333
10,11,22,1,11,23.78999999999998,19,110,65,61,69,111,23.85099999999998,0.8539999999999996,2.1959999999999984,7.990999999999993,20,4,7,13,111,4,11,27,4,0.5,26,3.5,1,L,0.21487387387387386,0.2135,0.19963636363636364,0.29596296296296287
11,1,1,1,8,73.62700000000106,12,315,94,104,97,100,81.98400000000106,0.122,0.5489999999999999,5.123999999999996,20,2,4,15,353,2,4,28,2,0.5,15,2.25,1,L,0.23224929178470252,0.061,0.13724999999999998,0.183
11,1,2,1,1,47.57999999999996,13,205,17,73,18,83,52.70399999999996,1.0979999999999994,8.234999999999994,12.38299999999999,20,6,14,14,227,7,34,39,3,0,18,4.5,1,L,0.23217621145374448,0.15685714285714286,0.24220588235294116,0.3175128205128204
11,2,3,1,1,25.31499999999998,17,114,81,79,77,69,25.80299999999998,1.0979999999999994,1.646999999999999,6.282999999999995,20,5,4,14,118,6,4,28,3,0.5,22,3.25,1,L,0.21866949152542373,0.183,0.4117499999999999,0.22439285714285714
11,2,4,1,3,21.349999999999984,18,105,28,90,54,85,21.715999999999983,35.562999999999974,0.244,1.1589999999999994,20,18,2,4,108,135,2,4,5,0,15,3.75,1,L,0.20107407407407407,0.2634296296296296,0.122,0.28974999999999995
11,3,5,1,15,29.035999999999976,9,126,16,15,82,24,31.170999999999975,1.0979999999999994,5.001999999999996,0.305,17,7,15,2,136,8,28,2,6,0.5,39,5.25,1,L,0.2291985294117647,0.13724999999999998,0.17864285714285713,0.1525
11,3,6,1,7,70.27200000000067,12,298,3,2,1,8,70.88200000000067,3.9649999999999967,22.325999999999983,0.5489999999999999,14,9,18,2,300,18,104,2,6,1,72,6,1,L,0.2362733333333333,0.22027777777777777,0.2146730769230769,0.27449999999999997
11,4,7,1,7,11.284999999999991,18,52,2,10,56,55,11.345999999999991,1.9519999999999986,1.0369999999999995,5.7339999999999955,19,6,3,15,53,6,3,21,6,0,20,5,1,L,0.2140754716981132,0.3253333333333332,0.34566666666666657,0.27304761904761904
11,4,8,1,13,14.639999999999988,17,75,113,117,111,13,15.432999999999987,0.244,1.4029999999999991,6.160999999999995,20,1,6,12,79,1,10,16,2,0.5,18,3,1,L,0.1953544303797468,0.244,0.1403,0.3850624999999999
11,5,9,1,1,13.968999999999989,17,66,82,106,68,74,16.34799999999999,30.804999999999975,2.8669999999999978,0.122,20,18,10,2,77,125,11,2,3,0,12,3,1,L,0.21231168831168828,0.24644,0.2606363636363636,0.061
11,5,10,1,12,14.273999999999988,19,84,42,47,46,21,14.334999999999988,1.3419999999999992,0.061,7.075999999999994,20,2,1,13,85,2,1,27,5,0.5,36,5.25,1,L,0.1686470588235294,0.6709999999999998,0.061,0.26207407407407407
11,6,11,1,1,18.787999999999986,20,93,15,77,79,16,31.902999999999977,0.7319999999999998,3.3549999999999973,0.244,20,4,12,1,151,4,19,1,3,0,18,4.5,1,L,0.2112781456953642,0.183,0.17657894736842103,0.244
11,6,12,1,14,33.427999999999976,18,143,90,87,88,85,34.586999999999975,0.061,0.122,9.332999999999993,20,1,2,13,150,1,2,37,3,1,36,3,1,L,0.23057999999999998,0.061,0.061,0.2522432432432432
11,7,13,1,1,77.65300000000153,14,312,23,58,50,15,78.50700000000153,0.7929999999999997,1.2199999999999993,2.1959999999999984,15,2,4,10,313,2,4,12,3,0,20,5,1,L,0.2508210862619808,0.39649999999999996,0.30499999999999994,0.183
11,7,14,1,14,16.10399999999999,19,70,93,92,95,91,16.34799999999999,0.9759999999999995,0.061,0.8539999999999996,20,3,1,5,73,5,1,6,3,1,36,3,1,L,0.22394520547945204,0.19519999999999998,0.061,0.14233333333333334
11,8,15,1,2,72.77300000000096,15,302,14,59,55,35,78.75100000000096,0.183,3.659999999999997,10.552999999999992,20,2,13,15,326,2,18,41,4,0,19,4.75,1,L,0.24156748466257666,0.0915,0.2033333333333333,0.257390243902439
11,8,16,1,12,23.057999999999982,20,109,40,46,43,72,24.33899999999998,0.122,0.183,9.698999999999993,20,2,1,13,114,2,1,35,5,0.5,34,4.75,1,L,0.2135,0.061,0.183,0.27711428571428565
11,9,17,1,7,50.56899999999996,10,206,2,10,9,7,50.62999999999996,1.524999999999999,5.672999999999996,6.8929999999999945,11,8,13,13,207,10,23,29,6,1,72,6,1,L,0.2445893719806763,0.1525,0.24665217391304345,0.23768965517241375
11,9,18,1,11,27.388999999999978,13,125,67,62,65,66,28.791999999999977,2.500999999999998,2.0739999999999985,0.6099999999999999,19,5,8,3,133,7,10,3,4,1,48,4,1,L,0.21648120300751877,0.3572857142857142,0.2074,0.20333333333333334
11,10,19,1,3,29.279999999999976,19,144,30,27,23,16,31.597999999999974,3.0499999999999976,11.406999999999991,4.025999999999997,20,11,14,13,149,16,37,28,5,0,22,5.5,1,L,0.21206711409395973,0.190625,0.30829729729729727,0.1437857142857143
11,10,20,1,12,51.54499999999996,12,185,39,43,72,8,52.33799999999996,1.646999999999999,14.090999999999989,5.7949999999999955,18,5,17,15,192,7,51,30,5,0,20,5,1,L,0.27259374999999997,0.2352857142857143,0.2762941176470588,0.19316666666666665
11,11,21,1,3,62.40299999999995,12,271,30,27,114,81,62.70799999999995,2.0129999999999986,2.1959999999999984,3.537999999999997,13,7,7,10,272,9,7,13,5,0,15,3.75,1,L,0.23054411764705882,0.22366666666666665,0.31371428571428567,0.27215384615384614
11,11,22,1,7,25.19299999999998,20,111,10,2,6,7,25.31499999999998,1.8909999999999987,3.2939999999999974,0.488,20,7,12,3,113,7,18,3,6,1,72,6,1,L,0.22402654867256636,0.27014285714285713,0.183,0.16266666666666665
12,1,1,1,13,46.237999999999964,13,202,118,119,115,47,46.298999999999964,1.646999999999999,1.1589999999999994,4.025999999999997,14,5,5,11,203,7,7,17,2,0.5,17,2.75,1,L,0.22807389162561573,0.2352857142857143,0.16557142857142856,0.23682352941176468
12,1,2,1,8,26.04699999999998,15,118,7,104,8,97,40.74799999999997,0.7319999999999998,0.183,8.234999999999994,20,7,1,13,186,7,1,27,2,0,16,4,1,L,0.2190752688172043,0.10457142857142857,0.183,0.30499999999999994
12,2,3,1,8,38.79599999999997,20,167,98,105,104,5,38.85699999999997,3.1109999999999975,1.7689999999999988,2.9279999999999977,20,10,7,8,168,11,11,8,2,0.5,18,3,1,L,0.23129166666666665,0.28281818181818175,0.1608181818181818,0.3659999999999999
12,2,4,1,2,11.162999999999991,17,56,46,90,112,93,53.13099999999996,5.7949999999999955,1.7689999999999988,1.9519999999999986,20,17,9,9,214,25,10,9,4,0,13,3.25,1,L,0.2482757009345794,0.23179999999999998,0.1769,0.21688888888888885
12,3,5,1,15,13.29799999999999,20,66,14,20,15,23,17.994999999999987,0.122,1.524999999999999,2.1349999999999985,20,1,6,6,83,1,7,7,6,1,72,6,1,L,0.21680722891566265,0.122,0.21785714285714286,0.30499999999999994
12,3,6,1,2,66.97800000000029,11,276,60,59,52,51,67.10000000000029,0.244,1.0979999999999994,2.683999999999998,13,1,5,8,278,1,5,12,4,1,48,4,1,L,0.24136690647482012,0.244,0.2196,0.22366666666666665
12,4,7,1,11,68.32000000000045,13,295,67,70,71,7,68.86900000000045,0.183,4.635999999999997,1.585999999999999,15,2,11,6,297,2,21,6,4,0.5,30,4.5,1,L,0.23188215488215486,0.0915,0.22076190476190474,0.2643333333333333
12,4,8,1,2,20.251999999999985,11,97,60,110,114,117,23.118999999999982,12.01699999999999,0.5489999999999999,2.744999999999998,20,17,3,10,113,47,3,12,4,0.5,16,2.5,1,L,0.2045929203539823,0.25568085106382976,0.183,0.22875
12,5,9,1,11,67.16100000000031,13,299,80,75,78,102,72.46800000000032,4.6969999999999965,10.308999999999992,2.622999999999998,20,13,18,7,319,21,37,9,4,0.5,20,2.75,1,L,0.22717241379310343,0.22366666666666662,0.2786216216216216,0.29144444444444445
12,5,10,1,2,54.655999999999956,12,217,55,115,58,53,54.716999999999956,2.622999999999998,0.061,0.7929999999999997,13,9,1,4,218,12,1,5,4,0.5,26,3.5,1,L,0.25099541284403665,0.21858333333333332,0.061,0.1586
12,6,11,1,15,41.11399999999997,7,178,14,13,23,18,43.43199999999997,2.3179999999999983,2.8669999999999978,3.537999999999997,16,9,12,11,187,11,17,18,6,1,72,6,1,L,0.2322566844919786,0.21072727272727274,0.1686470588235294,0.19655555555555554
12,6,12,1,14,52.58199999999996,10,204,87,88,93,41,53.00899999999996,0.7929999999999997,4.086999999999997,4.940999999999996,11,4,12,13,205,4,14,21,3,0.5,23,3.5,1,L,0.258580487804878,0.19824999999999998,0.2919285714285714,0.23528571428571426
12,7,13,1,15,15.371999999999987,15,73,23,17,19,26,16.774999999999988,5.550999999999996,0.8539999999999996,51.42299999999996,20,14,3,16,80,29,4,220,6,0.5,41,5.75,1,L,0.20968749999999997,0.19141379310344828,0.2135,0.23374090909090905
12,7,14,1,11,15.432999999999987,16,65,71,61,69,70,16.530999999999988,0.427,0.183,4.818999999999996,20,2,2,16,69,2,2,26,4,1,48,4,1,L,0.23957971014492752,0.2135,0.0915,0.18534615384615383
12,8,15,1,3,80.15400000000182,12,311,33,103,26,29,80.58100000000182,1.1589999999999994,0.6709999999999998,1.524999999999999,14,4,2,7,313,4,2,7,5,0.5,32,4.25,1,L,0.2574472843450479,0.28974999999999995,0.33549999999999996,0.21785714285714283
12,8,16,1,11,21.471999999999984,19,104,69,71,75,47,22.630999999999982,1.463999999999999,16.774999999999988,12.32199999999999,20,9,18,16,110,11,78,46,4,0,16,4,1,L,0.20573636363636363,0.1330909090909091,0.21506410256410255,0.26786956521739125
12,9,17,1,15,13.724999999999989,17,76,14,15,17,21,14.517999999999988,1.646999999999999,0.122,1.7689999999999988,20,6,2,5,81,7,2,5,6,1,72,6,1,L,0.17923456790123454,0.23528571428571424,0.061,0.3537999999999999
12,9,18,1,2,9.454999999999993,17,49,53,59,58,112,10.613999999999992,0.305,1.2199999999999993,5.611999999999996,20,3,3,13,54,3,3,24,4,0.5,26,3.5,1,L,0.19655555555555554,0.10166666666666667,0.4066666666666666,0.2338333333333333
12,10,19,1,15,8.722999999999994,15,45,20,18,14,19,9.454999999999993,0.244,0.9759999999999995,1.7079999999999989,20,2,2,4,50,2,4,5,6,1,72,6,1,L,0.1891,0.122,0.24399999999999994,0.3415999999999999
12,10,20,1,11,54.04599999999996,14,229,63,64,113,86,54.10699999999996,3.2329999999999974,7.502999999999994,4.7579999999999965,15,9,15,12,230,16,35,17,4,0,13,3.25,1,L,0.2352478260869565,0.20206249999999995,0.21437142857142855,0.2798823529411764
12,11,21,1,1,11.101999999999991,14,50,81,67,17,13,11.162999999999991,50.69099999999996,29.340999999999976,10.918999999999992,15,19,18,17,51,190,119,44,3,0,19,4.75,1,L,0.21888235294117644,0.26679473684210525,0.246563025210084,0.24815909090909086
12,11,22,1,2,38.73499999999997,13,167,56,50,34,26,38.97899999999997,1.2809999999999993,48.98299999999996,2.9889999999999977,14,6,18,7,168,6,196,9,4,0,18,4.5,1,L,0.2320178571428571,0.21349999999999994,0.24991326530612243,0.332111111111111
13,1,1,1,12,13.35899999999999,16,59,14,48,66,15,20.556999999999984,0.183,15.615999999999987,1.0369999999999995,20,3,18,6,91,3,59,7,5,0,21,5.25,1,L,0.22590109890109886,0.061,0.26467796610169486,0.14814285714285713
13,1,2,1,7,16.04299999999999,16,79,6,8,11,111,16.10399999999999,0.6709999999999998,6.221999999999995,4.513999999999997,17,3,15,11,80,4,25,19,6,0.5,38,5,1,L,0.20129999999999998,0.16775,0.24887999999999996,0.237578947368421
13,2,3,1,3,15.005999999999988,19,76,30,25,110,11,16.28699999999999,2.805999999999998,17.506999999999987,5.367999999999996,20,10,15,13,84,16,67,22,5,0,18,4.5,1,L,0.19389285714285714,0.175375,0.2612985074626865,0.244
13,2,4,1,14,13.663999999999989,17,69,89,91,94,85,14.761999999999988,1.2809999999999993,0.183,1.2199999999999993,20,6,2,6,74,8,2,6,3,1,36,3,1,L,0.19948648648648648,0.16012499999999996,0.0915,0.20333333333333334
13,3,5,1,14,48.43399999999996,13,192,87,93,88,8,60.02399999999995,0.183,1.463999999999999,0.122,20,2,6,1,240,2,7,1,3,0.5,24,3.75,1,L,0.2501,0.0915,0.20914285714285713,0.122
13,3,6,1,11,26.83999999999998,17,111,81,26,118,65,44.590999999999966,15.615999999999987,0.244,1.7079999999999989,20,18,2,5,179,64,2,5,4,0,14,3.5,1,L,0.24911173184357538,0.24399999999999997,0.122,0.34159999999999996
13,4,7,1,12,38.18599999999997,14,164,37,47,40,46,38.73499999999997,1.9519999999999986,0.183,0.5489999999999999,16,7,1,5,166,8,1,5,5,1,60,5,1,L,0.23334337349397588,0.24399999999999994,0.183,0.1098
13,4,8,1,14,69.29600000000056,10,270,87,57,4,7,72.83400000000056,10.613999999999992,1.646999999999999,0.427,20,18,5,2,284,44,5,2,3,0,19,4.75,1,L,0.2564577464788732,0.2412272727272727,0.32939999999999997,0.2135
13,5,9,1,8,11.589999999999991,17,61,104,102,106,53,15.249999999999988,1.2199999999999993,0.7929999999999997,27.754999999999978,20,6,3,17,77,6,4,113,2,0.5,16,2.5,1,L,0.19805194805194803,0.20333333333333334,0.19824999999999998,0.24561946902654863
13,5,10,1,11,17.750999999999987,14,87,68,61,6,70,17.933999999999987,0.366,11.284999999999991,1.8299999999999987,15,4,18,7,88,4,46,8,4,0.5,30,4.5,1,L,0.20379545454545453,0.0915,0.2453260869565217,0.22874999999999998
13,6,11,1,7,16.40899999999999,18,74,8,2,11,63,16.530999999999988,2.622999999999998,0.8539999999999996,14.334999999999988,19,10,3,15,75,17,3,74,6,0.5,40,5.5,1,L,0.22041333333333332,0.1542941176470588,0.2846666666666667,0.1937162162162162
13,6,12,1,2,12.19999999999999,19,65,55,16,57,88,17.933999999999987,14.700999999999988,0.427,5.245999999999996,20,18,4,9,92,69,4,21,4,0,17,4.25,1,L,0.19493478260869565,0.21305797101449273,0.10675,0.2498095238095238
13,7,13,1,15,12.13899999999999,14,62,23,21,13,24,12.44399999999999,1.0369999999999995,12.26099999999999,1.463999999999999,16,3,13,6,64,3,39,7,6,1,72,6,1,L,0.19443749999999999,0.3456666666666667,0.3143846153846153,0.20914285714285713
13,7,14,1,3,22.935999999999982,18,115,31,25,110,12,22.996999999999982,1.646999999999999,7.746999999999994,9.271999999999993,19,7,10,16,116,7,24,43,5,0,18,4.5,1,L,0.19824999999999998,0.2352857142857143,0.3227916666666666,0.21562790697674417
13,8,15,1,3,55.387999999999955,16,235,26,66,95,6,56.058999999999955,1.524999999999999,4.269999999999997,0.8539999999999996,20,2,9,4,239,2,11,4,5,0,18,4.5,1,L,0.23455648535564852,0.7624999999999997,0.38818181818181813,0.2135
13,8,16,1,1,26.22999999999998,19,97,84,82,77,75,26.59599999999998,0.8539999999999996,1.7079999999999989,0.488,20,3,6,3,102,3,6,3,3,1,36,3,1,L,0.26074509803921564,0.2846666666666667,0.2846666666666666,0.16266666666666665
13,9,17,1,11,19.397999999999985,18,83,70,114,2,4,19.580999999999985,3.0499999999999976,6.221999999999995,1.7689999999999988,19,9,15,4,84,12,29,4,4,0,18,4.5,1,L,0.23310714285714285,0.25416666666666665,0.21455172413793103,0.44224999999999975
13,9,18,1,8,46.84799999999996,14,205,102,98,53,52,48.61699999999996,0.7319999999999998,2.8669999999999978,4.086999999999997,19,2,11,8,210,2,14,15,2,0,12,3,1,L,0.23150952380952378,0.3659999999999999,0.20478571428571427,0.27246666666666663
13,10,19,1,7,15.920999999999987,15,82,4,8,7,116,15.981999999999987,2.500999999999998,3.9649999999999967,3.0499999999999976,16,12,15,7,83,15,20,10,6,0.5,38,5,1,L,0.19255421686746987,0.16673333333333332,0.19824999999999998,0.305
13,10,20,1,14,10.796999999999992,17,54,98,101,106,107,53.19199999999996,0.9149999999999996,19.275999999999986,0.244,20,5,18,1,220,5,88,1,3,1,24,2,1,L,0.24178181818181815,0.183,0.21904545454545452,0.244
13,11,21,1,15,39.71099999999997,10,158,20,14,15,17,41.23599999999997,7.014999999999994,1.7079999999999989,16.16499999999999,15,14,8,16,163,30,11,75,6,1,72,6,1,L,0.2529815950920245,0.2338333333333333,0.15527272727272726,0.21553333333333333
13,11,22,1,12,8.905999999999993,13,51,39,41,40,51,9.637999999999993,0.488,0.244,22.386999999999983,18,3,1,16,57,3,1,78,5,0.5,34,4.75,1,L,0.1690877192982456,0.16266666666666665,0.244,0.28701282051282045
14,1,1,1,14,35.196999999999974,20,166,90,95,94,85,35.562999999999974,1.9519999999999986,0.061,0.5489999999999999,20,6,1,3,167,7,1,3,3,1,36,3,1,L,0.21295209580838323,0.27885714285714275,0.061,0.183
14,1,2,1,11,29.706999999999976,16,141,67,70,42,65,30.377999999999975,8.966999999999993,20.190999999999985,0.488,18,14,18,3,143,29,81,4,4,0.5,29,4.25,1,L,0.21243356643356642,0.30920689655172406,0.24927160493827155,0.122
14,2,3,1,3,13.724999999999989,19,69,24,14,105,17,38.79599999999997,13.05399999999999,0.305,0.9759999999999995,20,18,2,5,177,45,2,5,5,0.5,38,5,1,L,0.21918644067796608,0.29008888888888884,0.1525,0.19519999999999998
14,2,4,1,11,34.708999999999975,11,139,68,71,64,66,35.928999999999974,0.7319999999999998,0.9149999999999996,0.122,15,3,5,1,143,4,6,1,4,1,48,4,1,L,0.25125174825174823,0.183,0.1525,0.122
14,3,5,1,1,14.090999999999989,15,63,76,74,78,1,14.456999999999988,1.8909999999999987,0.061,7.380999999999994,18,7,1,13,66,7,1,33,3,0.5,24,3.75,1,L,0.21904545454545452,0.27014285714285713,0.061,0.22366666666666665
14,3,6,1,11,14.151999999999989,18,76,64,70,71,65,15.249999999999988,0.366,3.476999999999997,0.305,20,4,7,1,81,4,12,1,4,1,48,4,1,L,0.1882716049382716,0.0915,0.28974999999999995,0.305
14,4,7,1,3,52.33799999999996,14,219,33,28,31,89,54.655999999999956,0.488,2.561999999999998,8.295999999999994,20,2,8,15,227,2,13,38,5,0.5,33,4.5,1,L,0.24077533039647575,0.244,0.19707692307692307,0.21831578947368419
14,4,8,1,12,60.63399999999995,12,268,43,39,67,80,60.69499999999995,0.9149999999999996,7.014999999999994,3.720999999999997,13,4,14,9,269,4,35,15,5,0,17,4.25,1,L,0.22563197026022302,0.22875,0.20042857142857143,0.24806666666666663
14,5,9,1,3,26.47399999999998,20,126,73,5,55,104,42.39499999999997,49.16599999999996,7.990999999999993,0.183,20,18,15,1,187,206,31,1,5,0,15,3.75,1,L,0.22671122994652404,0.23866990291262133,0.2577741935483871,0.183
14,5,10,1,13,67.77100000000038,18,297,95,111,113,47,68.93000000000039,0.122,4.6969999999999965,0.305,20,1,13,3,303,1,20,3,2,0,12,3,1,L,0.22749174917491746,0.122,0.23484999999999998,0.10166666666666667
14,6,11,1,11,24.39999999999998,18,122,71,67,9,64,25.31499999999998,1.0979999999999994,1.463999999999999,3.4159999999999973,20,5,3,11,128,6,4,16,4,0.5,30,4.5,1,L,0.19777343749999998,0.18299999999999997,0.36599999999999994,0.2135
14,6,12,1,8,19.458999999999985,20,101,50,103,13,23,43.43199999999997,0.061,0.9149999999999996,0.427,20,1,3,4,193,1,3,4,2,0,18,4.5,1,L,0.22503626943005178,0.061,0.305,0.10675
14,7,13,1,14,68.68600000000049,16,321,62,29,31,95,78.44600000000048,0.5489999999999999,0.305,0.061,20,2,3,1,355,2,3,1,3,0,17,4.25,1,L,0.22097464788732393,0.27449999999999997,0.10166666666666667,0.061
14,7,14,1,12,39.28399999999997,20,176,48,37,41,16,41.11399999999997,1.2199999999999993,0.9149999999999996,0.8539999999999996,20,3,3,3,183,3,3,3,5,0.5,36,5.25,1,L,0.22466666666666665,0.4066666666666665,0.30499999999999994,0.2846666666666666
14,8,15,1,15,13.785999999999989,18,69,13,23,14,115,15.005999999999988,0.6709999999999998,1.8299999999999987,11.77299999999999,20,4,7,16,76,5,9,56,6,0.5,38,5,1,L,0.19744736842105262,0.13419999999999999,0.20333333333333334,0.21023214285714284
14,8,16,1,12,13.17599999999999,19,78,46,10,86,1,14.212999999999989,14.334999999999988,0.305,2.0129999999999986,20,17,1,7,80,61,1,7,5,0,20,5,1,L,0.1776625,0.235,0.305,0.28757142857142853
14,9,17,1,15,13.35899999999999,19,69,13,15,24,96,13.54199999999999,0.8539999999999996,4.574999999999997,5.977999999999995,20,4,8,13,71,4,13,27,6,0.5,39,5.25,1,L,0.19073239436619718,0.21349999999999997,0.3519230769230769,0.22140740740740739
14,9,18,1,12,24.76599999999998,20,120,52,3,38,48,50.99599999999996,0.183,0.061,0.427,20,1,1,3,227,1,1,3,5,0,20,5,1,L,0.22465198237885461,0.183,0.061,0.14233333333333334
14,10,19,1,11,55.021999999999956,16,220,71,62,4,65,56.180999999999955,0.244,9.149999999999993,1.463999999999999,19,2,17,6,223,2,46,7,4,0.5,30,4.5,1,L,0.25193273542600897,0.122,0.19891304347826086,0.20914285714285713
14,10,20,1,15,12.50499999999999,15,57,14,13,37,56,12.56599999999999,0.427,6.709999999999995,1.7079999999999989,16,1,13,3,58,1,30,3,6,0,21,5.25,1,L,0.21665517241379306,0.427,0.22366666666666665,0.5693333333333331
14,11,21,1,12,55.997999999999955,16,231,5,6,41,105,67.52699999999994,1.8909999999999987,1.463999999999999,1.0369999999999995,20,8,7,7,268,8,8,7,5,0,19,4.75,1,L,0.2519664179104477,0.23637499999999997,0.183,0.14814285714285713
14,11,22,1,15,10.186999999999992,15,54,17,23,109,91,10.247999999999992,4.330999999999997,1.646999999999999,3.9649999999999967,16,11,4,8,55,23,5,14,6,0,17,4.25,1,L,0.18632727272727273,0.18830434782608693,0.3293999999999999,0.2832142857142857
15,1,1,1,14,48.12899999999996,14,208,1,4,46,95,77.65299999999993,0.244,2.2569999999999983,0.427,20,2,10,3,329,2,11,3,3,0,20,5,1,L,0.2360273556231003,0.122,0.2051818181818182,0.14233333333333334
15,1,2,1,1,48.37299999999996,12,204,14,73,18,78,60.26799999999995,0.061,0.061,0.183,20,1,1,2,255,1,1,2,3,0,18,4.5,1,L,0.23634509803921566,0.061,0.061,0.0915
15,2,3,1,7,42.88299999999997,15,186,2,12,11,10,42.94399999999997,1.3419999999999992,0.6099999999999999,2.2569999999999983,16,3,5,5,187,3,5,6,6,1,72,6,1,L,0.2296470588235294,0.4473333333333332,0.122,0.37616666666666654
15,2,4,1,12,15.676999999999987,19,81,17,48,53,52,51.11799999999996,0.488,1.463999999999999,0.305,20,3,10,4,239,3,10,4,5,0,19,4.75,1,L,0.21388284518828451,0.16266666666666665,0.1464,0.07625
15,3,5,1,15,25.31499999999998,12,113,17,14,23,40,25.80299999999998,1.8299999999999987,1.8909999999999987,8.600999999999994,16,6,7,17,117,7,9,42,6,0.5,41,5.75,1,L,0.22053846153846152,0.2614285714285714,0.2101111111111111,0.20478571428571427
15,3,6,1,3,16.835999999999988,19,87,36,32,51,77,17.750999999999987,0.7929999999999997,11.345999999999991,3.781999999999997,20,3,16,11,93,4,45,16,5,0,17,4.25,1,L,0.1908709677419355,0.19824999999999998,0.2521333333333333,0.236375
15,4,7,1,14,19.641999999999985,13,100,89,93,41,86,22.020999999999983,0.6709999999999998,8.234999999999994,0.122,20,4,13,2,112,4,28,2,3,0.5,23,3.5,1,L,0.1966160714285714,0.16775,0.29410714285714284,0.061
15,4,8,1,11,15.737999999999987,20,85,72,62,66,1,15.798999999999987,2.622999999999998,16.34799999999999,1.9519999999999986,20,9,16,11,86,9,60,15,4,0.5,30,4.5,1,L,0.1837093023255814,0.29144444444444445,0.27246666666666663,0.13013333333333332
15,5,9,1,12,63.86699999999995,13,276,66,85,96,87,84.05799999999994,3.781999999999997,1.2199999999999993,0.244,20,14,5,2,382,20,8,2,5,0.5,22,3.25,1,L,0.22004712041884816,0.1891,0.1525,0.122
15,5,10,1,13,51.66699999999996,17,221,119,117,115,26,51.84999999999996,0.183,2.8669999999999978,6.343999999999995,19,2,13,13,224,2,15,25,2,0.5,17,2.75,1,L,0.23147321428571427,0.0915,0.19113333333333332,0.25376
15,6,11,1,7,10.735999999999992,20,55,4,5,8,27,15.37199999999999,0.122,3.4159999999999973,0.061,20,1,11,1,68,1,19,1,6,0.5,41,5.75,1,L,0.22605882352941173,0.122,0.17978947368421053,0.061
15,6,12,1,1,31.231999999999974,12,139,76,77,80,78,31.292999999999974,2.9279999999999977,2.9279999999999977,1.0369999999999995,13,11,12,3,140,13,14,3,3,1,36,3,1,L,0.22352142857142857,0.2252307692307692,0.20914285714285713,0.3456666666666667
15,7,13,1,12,80.33700000000184,13,344,46,55,39,11,80.52000000000184,3.659999999999997,0.183,3.781999999999997,14,11,2,13,345,15,2,18,5,0,20,5,1,L,0.23339130434782607,0.24399999999999994,0.0915,0.21011111111111108
15,7,14,1,11,18.726999999999986,17,81,66,61,25,23,18.787999999999986,0.183,6.099999999999995,17.079999999999988,18,1,14,16,82,1,22,70,4,0,19,4.75,1,L,0.22912195121951218,0.183,0.2772727272727272,0.244
15,8,15,1,8,29.584999999999976,18,147,14,104,107,83,44.224999999999966,1.2809999999999993,6.648999999999995,3.1109999999999975,20,8,17,10,200,8,28,11,2,0,13,3.25,1,L,0.221125,0.160125,0.23746428571428568,0.2828181818181818
15,8,16,1,14,15.432999999999987,14,67,89,91,49,87,22.813999999999982,2.9889999999999977,4.7579999999999965,0.122,20,9,14,2,91,13,26,2,3,0.5,22,3.25,1,L,0.25070329670329666,0.2299230769230769,0.183,0.061
15,9,17,1,13,41.78499999999997,11,191,116,114,22,117,41.90699999999997,2.0739999999999985,1.2809999999999993,1.3419999999999992,12,7,4,4,192,7,4,4,2,0.5,18,3,1,L,0.218265625,0.2962857142857142,0.3202499999999999,0.3354999999999999
15,9,18,1,7,39.83299999999997,13,185,3,9,102,67,39.89399999999997,1.646999999999999,2.2569999999999983,1.585999999999999,14,5,5,6,186,5,7,7,6,0,18,4.5,1,L,0.2144838709677419,0.32939999999999997,0.3224285714285714,0.22657142857142856
15,10,19,1,13,85.09500000000239,11,375,117,110,118,29,87.35200000000239,0.9149999999999996,1.3419999999999992,1.0979999999999994,19,4,7,5,384,5,8,5,2,0.5,17,2.75,1,L,0.22747916666666665,0.183,0.16775,0.2196
15,10,20,1,7,49.89799999999996,18,234,3,11,8,50,49.95899999999996,1.8909999999999987,10.369999999999992,0.305,19,7,16,1,235,9,48,1,6,0.5,40,5.5,1,L,0.2125914893617021,0.21011111111111108,0.21604166666666666,0.305
15,11,21,1,11,73.68800000000107,12,304,64,68,45,46,74.42000000000107,0.305,4.269999999999997,7.136999999999994,15,1,10,13,308,1,16,29,4,0,18,4.5,1,L,0.2416233766233766,0.305,0.266875,0.24610344827586203
15,11,22,1,14,71.67500000000084,12,282,21,116,20,88,73.01700000000083,2.1349999999999985,3.903999999999997,0.488,17,9,8,4,288,10,17,4,3,0,17,4.25,1,L,0.25353125,0.2135,0.2296470588235294,0.122
16,1,1,1,1,22.447999999999983,17,111,79,82,81,78,22.569999999999983,0.183,0.305,1.8909999999999987,18,1,1,4,112,1,1,4,3,1,36,3,1,L,0.20151785714285714,0.183,0.305,0.47275
16,1,2,1,14,12.99299999999999,16,69,90,94,87,1,14.822999999999988,2.561999999999998,4.513999999999997,14.456999999999988,20,8,12,15,78,8,16,55,3,0.5,24,3.75,1,L,0.19003846153846154,0.32025,0.28212499999999996,0.2628545454545454
16,2,3,1,15,30.194999999999975,14,151,23,18,59,15,31.170999999999975,2.683999999999998,4.391999999999997,0.061,17,7,11,1,154,10,12,1,6,0.5,40,5.5,1,L,0.2024090909090909,0.26839999999999997,0.3659999999999999,0.061
16,2,4,1,1,35.989999999999974,12,156,83,26,79,30,38.42999999999997,2.683999999999998,2.3179999999999983,0.5489999999999999,20,8,8,3,169,10,11,3,3,0,16,4,1,L,0.227396449704142,0.26839999999999997,0.21072727272727274,0.183
16,3,5,1,11,41.54099999999997,15,180,67,65,63,38,41.90699999999997,0.183,1.8299999999999987,8.661999999999994,18,3,7,16,183,3,8,43,4,0.5,29,4.25,1,L,0.22899999999999998,0.061,0.22875,0.20144186046511625
16,3,6,1,15,13.724999999999989,18,69,13,23,33,24,13.785999999999989,9.088999999999993,1.7079999999999989,0.061,19,16,8,1,70,45,12,1,6,0.5,41,5.75,1,L,0.19694285714285714,0.20197777777777776,0.14233333333333334,0.061
16,4,7,1,8,17.628999999999987,18,78,44,22,80,102,48.67799999999996,0.5489999999999999,9.271999999999993,0.122,20,3,16,1,198,3,36,1,2,0,16,4,1,L,0.24584848484848482,0.183,0.25755555555555554,0.122
16,4,8,1,7,7.8689999999999936,16,47,5,2,11,7,7.9299999999999935,11.528999999999991,1.0979999999999994,1.0979999999999994,17,16,6,4,48,47,6,5,6,1,72,6,1,L,0.16520833333333332,0.2452978723404255,0.183,0.21959999999999996
16,5,9,1,1,79.66600000000176,14,313,75,81,67,15,81.25200000000176,0.488,4.025999999999997,0.305,20,3,9,1,319,3,17,1,3,0,16,4,1,L,0.25470846394984326,0.16266666666666665,0.23682352941176468,0.305
16,5,10,1,12,82.47200000000208,10,350,45,40,11,10,85.03400000000208,0.488,6.343999999999995,8.417999999999994,17,3,15,17,359,4,28,50,5,0,22,5.5,1,L,0.2368635097493036,0.122,0.22657142857142856,0.16835999999999998
16,6,11,1,12,73.68800000000107,9,308,40,39,11,58,74.78600000000107,2.9889999999999977,4.879999999999996,0.6099999999999999,13,10,12,3,313,19,20,3,5,0,20,5,1,L,0.2389329073482428,0.15731578947368421,0.24399999999999997,0.20333333333333334
16,6,12,1,11,61.06099999999995,12,246,69,62,68,36,63.13499999999995,0.122,2.1349999999999985,4.452999999999997,19,1,7,8,254,1,7,11,4,0.5,29,4.25,1,L,0.24856299212598423,0.122,0.305,0.40481818181818174
16,7,13,1,8,81.37400000000196,13,346,69,105,71,98,103.63900000000194,0.244,2.0739999999999985,0.427,20,2,2,3,448,2,3,3,2,0,12,3,1,L,0.23133705357142856,0.122,0.6913333333333331,0.14233333333333334
16,7,14,1,1,197.7010000000154,20,809,33,24,22,58,198.5550000000154,0.061,7.319999999999994,3.2939999999999974,20,1,12,12,816,1,32,15,3,0,21,5.25,1,L,0.2433272058823529,0.061,0.22874999999999998,0.2196
16,8,15,1,1,69.05200000000053,18,294,84,34,8,99,70.76000000000053,2.805999999999998,0.488,1.7079999999999989,20,8,1,4,304,11,1,5,3,0,16,4,1,L,0.2327631578947368,0.2550909090909091,0.488,0.34159999999999996
16,8,16,1,12,76.06700000000134,12,318,45,43,18,23,76.37200000000135,2.0129999999999986,23.72899999999998,13.663999999999989,13,8,17,16,319,8,97,48,5,0,22,5.5,1,L,0.23941065830721,0.251625,0.2446288659793814,0.2846666666666666
16,9,17,1,13,23.48499999999998,20,111,116,112,110,51,24.88799999999998,0.8539999999999996,1.3419999999999992,3.781999999999997,20,7,6,10,120,7,7,19,2,0.5,16,2.5,1,L,0.2074,0.122,0.1917142857142857,0.19905263157894734
16,9,18,1,3,30.194999999999975,18,146,2,30,92,85,56.058999999999955,0.488,0.183,1.2199999999999993,20,4,1,3,242,4,1,3,5,0,17,4.25,1,L,0.2316487603305785,0.122,0.183,0.4066666666666666
16,10,19,1,8,25.31499999999998,20,116,99,98,102,34,27.266999999999978,0.8539999999999996,2.439999999999998,0.244,20,2,12,1,129,2,17,1,2,0.5,17,2.75,1,L,0.2113720930232558,0.4269999999999998,0.14352941176470588,0.244
16,10,20,1,1,74.29800000000114,12,317,82,73,76,65,77.71400000000114,1.463999999999999,0.5489999999999999,4.391999999999997,20,6,4,12,328,7,4,22,3,0.5,22,3.25,1,L,0.23693292682926828,0.20914285714285713,0.13724999999999998,0.19963636363636364
17,1,1,1,3,94.61100000000349,11,373,30,9,90,35,96.56300000000348,0.9149999999999996,1.1589999999999994,0.122,16,4,4,1,378,4,6,1,5,0,19,4.75,1,L,0.25545767195767194,0.22875,0.19316666666666665,0.122
17,1,2,1,12,37.81999999999997,10,151,44,41,47,46,38.85699999999997,1.7689999999999988,0.9149999999999996,0.6099999999999999,13,7,4,5,154,8,4,5,5,1,60,5,1,L,0.2523181818181818,0.22112499999999996,0.22875,0.122
17,2,3,1,14,38.49099999999997,15,169,85,24,13,89,40.50399999999997,9.027999999999993,10.369999999999992,0.6099999999999999,20,17,16,4,179,44,46,5,3,0,18,4.5,1,L,0.22627932960893854,0.20518181818181816,0.22543478260869562,0.122
17,2,4,1,12,45.932999999999964,14,180,5,40,12,61,51.97199999999996,0.244,0.9759999999999995,6.526999999999995,20,2,7,12,202,2,7,31,5,0,21,5.25,1,L,0.25728712871287124,0.122,0.13942857142857143,0.21054838709677415
17,3,5,1,11,24.52199999999998,19,103,66,63,64,14,24.58299999999998,3.1719999999999975,4.879999999999996,2.744999999999998,20,11,13,9,104,17,21,14,4,0.5,30,4.5,1,L,0.23637499999999997,0.18658823529411764,0.23238095238095235,0.19607142857142856
17,3,6,1,7,45.932999999999964,12,193,12,7,47,41,45.993999999999964,3.0499999999999976,4.818999999999996,10.247999999999992,13,7,11,16,194,10,22,44,6,0,22,5.5,1,L,0.2370824742268041,0.30499999999999994,0.21904545454545452,0.2329090909090909
17,4,7,1,13,24.76599999999998,13,109,109,69,64,18,25.00999999999998,4.208999999999997,11.650999999999991,0.8539999999999996,14,7,17,6,110,9,39,7,2,0,16,4,1,L,0.22736363636363635,0.4676666666666665,0.2987435897435897,0.122
17,4,8,1,1,13.785999999999989,20,72,73,84,82,1,14.883999999999988,4.7579999999999965,1.646999999999999,8.478999999999994,20,11,6,13,79,16,7,40,3,0.5,24,3.75,1,L,0.18840506329113924,0.29737499999999994,0.23528571428571426,0.211975
17,5,9,1,1,23.72899999999998,19,102,2,83,74,77,30.560999999999975,0.183,2.2569999999999983,0.061,20,2,4,1,130,2,4,1,3,0.5,24,3.75,1,L,0.23508461538461536,0.0915,0.5642499999999997,0.061
17,5,10,1,13,18.543999999999986,20,95,31,21,89,111,35.013999999999974,0.488,13.846999999999989,0.122,20,2,17,1,168,2,59,1,2,0,16,4,1,L,0.20841666666666664,0.244,0.23469491525423727,0.122
17,6,11,1,2,20.190999999999985,20,96,59,54,58,88,20.495999999999984,0.9759999999999995,0.427,12.56599999999999,20,5,4,17,99,5,4,67,4,0.5,27,3.75,1,L,0.207030303030303,0.19519999999999998,0.10675,0.18755223880597013
17,6,12,1,1,11.284999999999991,20,55,4,82,84,77,28.73099999999998,0.122,0.5489999999999999,0.6099999999999999,20,1,5,3,129,1,5,3,3,0.5,24,3.75,1,L,0.22272093023255812,0.122,0.1098,0.20333333333333334
17,7,13,1,14,62.76899999999995,11,269,95,88,58,12,67.77099999999994,0.9759999999999995,0.7319999999999998,0.7319999999999998,20,3,2,2,296,3,2,2,3,0,16,4,1,L,0.22895608108108106,0.32533333333333325,0.366,0.366
17,7,14,1,1,21.532999999999983,18,105,84,78,80,98,22.874999999999982,0.122,3.781999999999997,5.306999999999996,20,1,11,8,112,1,19,14,3,0.5,20,2.75,1,L,0.20424107142857142,0.122,0.19905263157894737,0.37907142857142845
17,8,15,1,15,18.909999999999986,19,101,13,14,18,77,18.970999999999986,4.452999999999997,6.770999999999995,3.1719999999999975,20,13,14,13,102,17,33,17,6,0.5,39,5.25,1,L,0.18599019607843137,0.26194117647058823,0.20518181818181816,0.18658823529411764
17,8,16,1,8,20.251999999999985,20,106,9,106,98,107,33.976999999999975,0.366,1.7079999999999989,2.9279999999999977,20,2,9,10,166,2,11,20,2,0.5,18,3,1,L,0.20468072289156625,0.183,0.15527272727272726,0.1464
17,9,17,1,8,42.39499999999997,18,176,97,108,98,15,42.76099999999997,2.622999999999998,0.9759999999999995,1.0979999999999994,20,11,3,3,178,13,3,4,2,0.5,18,3,1,L,0.24023033707865166,0.20176923076923076,0.32533333333333325,0.27449999999999997
17,9,18,1,11,15.249999999999988,20,75,1,114,75,111,17.506999999999987,6.099999999999995,14.822999999999988,4.6969999999999965,20,13,17,13,79,27,60,24,4,0,13,3.25,1,L,0.22160759493670884,0.22592592592592592,0.24704999999999996,0.19570833333333332
17,10,19,1,15,18.726999999999986,19,94,15,18,21,71,24.09499999999998,1.1589999999999994,1.0369999999999995,1.8909999999999987,20,6,4,5,120,7,5,6,6,0.5,40,5.5,1,L,0.20079166666666665,0.16557142857142856,0.2074,0.31516666666666665
17,10,20,1,12,19.580999999999985,20,106,40,42,85,6,20.007999999999985,2.439999999999998,2.9279999999999977,2.0739999999999985,20,9,7,5,108,12,7,6,5,0,19,4.75,1,L,0.18525925925925926,0.20333333333333334,0.4182857142857142,0.3456666666666666
17,11,21,1,1,26.04699999999998,19,117,5,80,84,55,27.205999999999978,0.183,2.683999999999998,4.818999999999996,20,2,7,11,119,2,10,17,3,0,16,4,1,L,0.22862184873949576,0.0915,0.26839999999999997,0.2834705882352941
17,11,22,1,11,30.865999999999975,20,140,25,17,22,15,56.180999999999955,3.9649999999999967,4.147999999999997,4.940999999999996,20,13,13,12,239,14,18,18,4,0.5,41,5.75,1,L,0.23506694560669453,0.2832142857142857,0.23044444444444442,0.27449999999999997
18,1,1,1,14,23.72899999999998,20,120,87,86,89,2,24.21699999999998,2.744999999999998,2.805999999999998,4.879999999999996,20,11,7,13,123,12,12,26,3,0.5,24,3.75,1,L,0.1968861788617886,0.22874999999999998,0.23383333333333334,0.18769230769230769
18,1,2,1,13,6.343999999999995,17,33,17,22,62,109,40.93099999999997,0.427,0.061,0.061,20,1,1,1,169,1,1,1,2,0,18,4.5,1,L,0.24219526627218932,0.427,0.061,0.061
18,2,3,1,8,30.499999999999975,19,147,108,103,106,102,32.45199999999998,0.7319999999999998,1.7689999999999988,0.244,20,4,6,2,154,5,7,2,2,1,24,2,1,L,0.2107272727272727,0.1464,0.2527142857142857,0.122
18,2,4,1,13,14.029999999999989,17,73,113,118,111,21,15.554999999999987,2.9279999999999977,0.5489999999999999,5.489999999999996,20,7,3,12,79,8,3,23,2,0.5,18,3,1,L,0.19689873417721518,0.3659999999999999,0.183,0.23869565217391303
18,3,5,1,2,27.388999999999978,17,137,58,59,23,18,27.449999999999978,0.7929999999999997,2.561999999999998,10.003999999999992,18,4,5,15,138,4,7,49,4,0,20,5,1,L,0.19891304347826086,0.19824999999999998,0.36599999999999994,0.20416326530612242
18,3,6,1,7,10.247999999999992,17,46,6,4,7,72,10.674999999999992,6.709999999999995,0.305,1.9519999999999986,19,12,2,4,48,29,2,5,6,0.5,40,5.5,1,L,0.22239583333333332,0.23137931034482756,0.1525,0.39039999999999986
18,4,7,1,14,65.88000000000017,15,279,93,85,95,14,66.06300000000017,0.6709999999999998,1.2809999999999993,2.744999999999998,16,4,3,9,280,4,3,16,3,0.5,24,3.75,1,L,0.23593928571428568,0.16775,0.4269999999999998,0.1715625
18,4,8,1,7,22.264999999999983,15,111,11,6,12,112,22.386999999999983,1.524999999999999,13.724999999999989,14.761999999999988,17,6,16,16,113,6,55,56,6,0.5,38,5,1,L,0.1981150442477876,0.25416666666666665,0.24954545454545454,0.2636071428571428
18,5,9,1,1,38.85699999999997,16,166,80,76,84,73,39.95499999999997,2.1959999999999984,0.244,0.5489999999999999,20,10,2,2,172,11,2,2,3,1,36,3,1,L,0.23229651162790696,0.19963636363636364,0.122,0.27449999999999997
18,5,10,1,15,30.011999999999976,17,131,13,15,21,91,31.231999999999974,0.061,2.744999999999998,8.295999999999994,20,1,7,16,142,1,12,42,6,0.5,39,5.25,1,L,0.21994366197183096,0.061,0.22874999999999998,0.19752380952380952
18,6,11,1,8,84.97300000000237,16,346,21,98,28,97,85.94900000000237,1.8299999999999987,0.183,1.463999999999999,20,5,2,9,350,8,2,9,2,0,15,3.75,1,L,0.24556857142857139,0.22874999999999998,0.0915,0.16266666666666665
18,6,12,1,11,20.739999999999984,20,116,69,62,2,8,20.983999999999984,0.6709999999999998,4.574999999999997,11.467999999999991,20,4,9,15,119,4,16,41,4,0,20,5,1,L,0.17633613445378152,0.16775,0.28593749999999996,0.2797073170731707
18,7,13,1,11,60.02399999999995,14,237,3,71,34,61,65.63599999999995,0.488,0.8539999999999996,0.427,20,2,5,5,268,2,5,5,4,0,19,4.75,1,L,0.244910447761194,0.244,0.1708,0.0854
18,7,14,1,8,58.43799999999995,12,247,107,101,18,20,59.16999999999995,0.061,3.842999999999997,0.305,17,1,7,1,253,1,13,1,2,0,16,4,1,L,0.23387351778656124,0.061,0.2956153846153846,0.305
18,8,15,1,1,28.303999999999977,20,124,80,79,78,68,30.194999999999975,0.427,1.3419999999999992,1.2809999999999993,20,2,6,4,131,3,7,5,3,0.5,22,3.25,1,L,0.23049618320610685,0.14233333333333334,0.1917142857142857,0.2562
18,8,16,1,7,18.299999999999986,12,82,2,5,4,40,18.360999999999986,2.0739999999999985,12.68799999999999,0.183,13,8,17,1,83,12,67,1,6,0.5,41,5.75,1,L,0.2212168674698795,0.17283333333333334,0.1893731343283582,0.183
18,9,17,1,8,78.87300000000167,16,335,107,7,105,11,81.31300000000167,0.8539999999999996,0.122,7.685999999999994,20,4,2,14,346,5,2,31,2,0,16,4,1,L,0.2350086705202312,0.1708,0.061,0.2479354838709677
18,9,18,1,14,16.896999999999988,14,72,96,88,86,92,17.018999999999988,0.305,1.7689999999999988,5.550999999999996,15,2,10,10,73,2,10,21,3,1,36,3,1,L,0.23313698630136984,0.1525,0.1769,0.2643333333333333
18,10,19,1,2,18.848999999999986,19,93,52,56,115,20,20.617999999999984,2.439999999999998,9.088999999999993,1.4029999999999991,20,9,14,5,101,12,38,5,4,0,16,4,1,L,0.20413861386138613,0.20333333333333334,0.23918421052631575,0.28059999999999996
18,10,20,1,14,57.88899999999995,12,239,91,90,87,5,58.25499999999995,2.561999999999998,0.061,4.574999999999997,15,12,1,14,242,15,1,25,3,0.5,24,3.75,1,L,0.24072314049586774,0.17079999999999998,0.061,0.183
18,11,21,1,7,24.39999999999998,20,106,4,12,75,5,24.82699999999998,1.7689999999999988,0.6709999999999998,4.635999999999997,20,8,2,11,108,12,2,18,6,0.5,39,5.25,1,L,0.2298796296296296,0.14741666666666667,0.3354999999999999,0.25755555555555554
18,11,22,1,12,45.261999999999965,12,193,41,20,119,16,47.64099999999996,1.646999999999999,6.404999999999995,0.427,18,6,13,2,199,7,27,2,5,0,19,4.75,1,L,0.23940201005025125,0.23528571428571426,0.2372222222222222,0.2135
19,1,1,1,15,18.055999999999987,20,91,13,15,23,74,23.362999999999982,0.305,0.7929999999999997,2.9279999999999977,20,3,5,10,123,3,5,13,6,0.5,39,5.25,1,L,0.1899430894308943,0.10166666666666667,0.1586,0.2252307692307692
19,1,2,1,8,30.255999999999975,15,128,104,101,94,107,30.987999999999975,3.1719999999999975,13.602999999999989,0.183,18,7,18,1,131,12,61,1,2,0.5,15,2.25,1,L,0.23654961832061067,0.2643333333333333,0.22299999999999998,0.183
19,2,3,1,14,17.628999999999987,20,89,85,90,94,86,20.556999999999984,2.1349999999999985,3.659999999999997,2.622999999999998,20,7,11,8,104,7,13,10,3,1,36,3,1,L,0.1976634615384615,0.3049999999999999,0.2815384615384615,0.2622999999999999
19,2,4,1,1,45.444999999999965,17,191,84,77,27,12,46.90899999999996,1.0369999999999995,1.2199999999999993,5.245999999999996,20,2,3,11,197,3,4,20,3,0,17,4.25,1,L,0.2381167512690355,0.3456666666666666,0.305,0.2623
19,3,5,1,7,13.41999999999999,20,62,4,3,7,5,13.968999999999989,8.356999999999994,0.244,0.366,20,16,2,3,65,31,2,3,6,1,72,6,1,L,0.2149076923076923,0.26958064516129027,0.122,0.122
19,3,6,1,3,18.848999999999986,20,82,18,83,19,27,34.586999999999975,0.427,2.0129999999999986,0.6099999999999999,20,1,8,2,156,1,9,2,5,0,20,5,1,L,0.22171153846153843,0.427,0.22366666666666665,0.30499999999999994
19,4,7,1,14,23.362999999999982,18,119,93,89,86,6,23.48499999999998,0.6709999999999998,2.0739999999999985,16.835999999999988,20,3,6,16,121,4,6,68,3,0.5,24,3.75,1,L,0.1940909090909091,0.16775,0.3456666666666665,0.24758823529411764
19,4,8,1,12,24.46099999999998,20,115,44,43,48,46,25.80299999999998,0.8539999999999996,1.0369999999999995,2.0129999999999986,20,6,4,7,119,7,4,10,5,1,60,5,1,L,0.21683193277310922,0.122,0.2592499999999999,0.2013
19,5,9,1,11,55.997999999999955,13,225,69,70,82,78,56.058999999999955,1.2199999999999993,12.32199999999999,3.1719999999999975,14,7,14,12,226,8,41,15,4,0,14,3.5,1,L,0.24804867256637164,0.1525,0.30053658536585365,0.21146666666666664
19,5,10,1,8,32.51299999999998,18,154,106,107,98,99,33.671999999999976,2.9889999999999977,0.183,0.5489999999999999,20,9,2,4,160,14,2,4,2,1,24,2,1,L,0.21044999999999997,0.2135,0.0915,0.13724999999999998
19,6,11,1,3,43.30999999999997,18,195,35,30,28,51,43.736999999999966,0.122,1.524999999999999,4.269999999999997,20,1,5,10,197,1,6,20,5,0.5,34,4.75,1,L,0.22201522842639593,0.122,0.25416666666666665,0.21349999999999997
19,6,12,1,11,12.56599999999999,18,60,67,68,71,104,14.456999999999988,0.305,1.524999999999999,7.258999999999994,20,3,5,10,70,3,6,25,4,0.5,26,3.5,1,L,0.20652857142857142,0.10166666666666667,0.25416666666666665,0.29035999999999995
19,7,13,1,7,47.82399999999996,16,216,10,1,3,7,47.88499999999996,5.489999999999996,3.720999999999997,14.456999999999988,17,14,10,17,217,28,16,60,6,1,72,6,1,L,0.22066820276497695,0.19607142857142856,0.2325625,0.24095
19,7,14,1,15,8.844999999999994,11,44,21,23,107,64,8.905999999999993,6.953999999999994,8.051999999999994,8.234999999999994,12,12,14,14,45,27,36,35,6,0,18,4.5,1,L,0.1979111111111111,0.25755555555555554,0.22366666666666662,0.23528571428571424
19,8,15,1,14,21.593999999999983,18,106,3,6,57,8,49.10499999999996,19.336999999999986,0.183,0.6099999999999999,20,19,2,2,205,82,2,2,3,0.5,40,5.5,1,L,0.23953658536585362,0.23581707317073167,0.0915,0.30499999999999994
19,8,16,1,15,13.11499999999999,11,58,16,17,18,22,13.48099999999999,0.6099999999999999,0.9149999999999996,2.744999999999998,14,2,3,8,61,2,3,11,6,1,72,6,1,L,0.22099999999999997,0.305,0.305,0.2495454545454545
19,9,17,1,8,34.586999999999975,14,145,102,108,107,14,34.708999999999975,0.9149999999999996,6.099999999999995,1.463999999999999,16,5,14,8,147,5,26,10,2,0.5,18,3,1,L,0.23611564625850337,0.183,0.23461538461538461,0.1464
19,9,18,1,3,48.31199999999996,14,222,34,31,36,4,49.40999999999996,2.0129999999999986,9.942999999999993,0.061,18,8,16,1,227,11,38,1,5,0.5,36,5.25,1,L,0.21766519823788544,0.183,0.2616578947368421,0.061
19,10,19,1,7,13.23699999999999,17,68,5,9,11,60,13.29799999999999,4.940999999999996,0.305,9.698999999999993,18,11,3,16,69,19,3,33,6,0.5,40,5.5,1,L,0.1927246376811594,0.2600526315789473,0.10166666666666667,0.29390909090909084
19,10,20,1,12,55.448999999999955,14,241,40,37,16,21,56.485999999999954,0.5489999999999999,8.051999999999994,0.244,18,4,15,2,245,5,33,2,5,0,22,5.5,1,L,0.2305551020408163,0.1098,0.24399999999999997,0.122
19,11,21,1,2,59.04799999999995,14,262,59,56,14,57,59.23099999999995,0.061,2.561999999999998,0.5489999999999999,15,1,9,2,263,1,11,4,4,0.5,30,4.5,1,L,0.22521292775665397,0.061,0.23290909090909084,0.13724999999999998
19,11,22,1,13,20.129999999999985,20,118,113,120,6,44,20.495999999999984,0.7319999999999998,9.332999999999993,0.7319999999999998,20,3,16,2,120,3,33,2,2,0,15,3.75,1,L,0.17079999999999998,0.244,0.2828181818181818,0.36599999999999994
20,1,1,1,14,15.432999999999987,18,78,85,91,95,11,18.421999999999986,4.6969999999999965,0.061,6.526999999999995,20,9,1,13,91,11,1,30,3,0.5,24,3.75,1,L,0.20243956043956043,0.4269999999999999,0.061,0.21756666666666666
20,1,2,1,11,25.19299999999998,10,128,71,72,69,67,25.43699999999998,1.463999999999999,1.4029999999999991,7.807999999999994,12,5,6,12,130,7,6,25,4,1,48,4,1,L,0.19566923076923076,0.2091428571428571,0.2338333333333333,0.31231999999999993
20,2,3,1,1,64.35499999999999,10,267,27,84,73,83,66.42899999999999,1.646999999999999,0.183,2.561999999999998,20,6,2,9,281,6,2,12,3,0.5,23,3.5,1,L,0.2364021352313167,0.27449999999999997,0.0915,0.21349999999999997
20,2,4,1,12,23.057999999999982,20,109,42,48,58,38,25.61999999999998,3.4159999999999973,5.611999999999996,1.1589999999999994,20,4,12,3,120,6,21,3,5,0.5,34,4.75,1,L,0.2135,0.569333333333333,0.2672380952380952,0.3863333333333332
20,3,5,1,1,69.11300000000054,11,277,81,79,18,19,71.00400000000054,0.488,1.8299999999999987,3.9649999999999967,19,5,4,11,288,5,5,20,3,0,18,4.5,1,L,0.24654166666666663,0.09759999999999999,0.366,0.19824999999999998
20,3,6,1,7,8.844999999999994,15,49,11,1,4,5,8.905999999999993,3.9649999999999967,0.7929999999999997,2.8669999999999978,16,9,5,8,50,14,6,8,6,1,72,6,1,L,0.17812,0.2832142857142857,0.13216666666666665,0.3583749999999999
20,4,7,1,14,46.603999999999964,14,203,48,2,96,63,70.94299999999994,8.478999999999994,1.7079999999999989,10.369999999999992,20,18,7,17,304,40,7,53,3,0,18,4.5,1,L,0.23336513157894734,0.21197499999999997,0.24399999999999997,0.19566037735849057
20,4,8,1,3,12.62699999999999,20,52,24,27,83,32,63.01299999999995,0.427,0.061,0.061,20,2,1,1,261,2,1,1,5,0,19,4.75,1,L,0.24142911877394632,0.2135,0.061,0.061
20,5,9,1,13,52.09399999999996,12,214,32,113,91,67,60.38999999999995,0.305,3.0499999999999976,1.0979999999999994,20,1,8,7,255,1,12,8,2,0,14,3.5,1,L,0.23682352941176468,0.305,0.2541666666666666,0.13724999999999998
20,5,10,1,1,71.85800000000086,14,327,78,81,74,50,73.87100000000086,0.244,3.598999999999997,3.4159999999999973,19,1,11,11,334,1,14,20,3,0.5,22,3.25,1,L,0.22117065868263472,0.244,0.2570714285714285,0.1708
20,6,11,1,15,56.119999999999955,14,240,16,15,89,65,58.43799999999995,2.561999999999998,1.2199999999999993,3.0499999999999976,20,11,7,14,252,16,8,17,6,0,19,4.75,1,L,0.23189682539682538,0.160125,0.1525,0.17941176470588233
20,6,12,1,12,13.785999999999989,20,83,47,37,1,78,14.273999999999988,5.855999999999995,3.659999999999997,3.720999999999997,20,13,10,10,86,26,16,13,5,0,19,4.75,1,L,0.1659767441860465,0.2252307692307692,0.22874999999999998,0.2862307692307692
20,7,13,1,3,25.19299999999998,17,114,27,13,16,73,27.693999999999978,6.8319999999999945,11.467999999999991,4.940999999999996,20,14,15,10,124,35,50,14,5,0,20,5,1,L,0.22333870967741934,0.19519999999999998,0.22935999999999998,0.35292857142857137
20,7,14,1,8,40.93099999999997,16,182,108,104,102,106,41.35799999999997,0.8539999999999996,2.2569999999999983,2.3789999999999982,18,5,10,6,184,5,12,7,2,1,24,2,1,L,0.22477173913043477,0.1708,0.18808333333333332,0.3398571428571428
20,8,15,1,15,10.308999999999992,16,44,13,14,20,21,10.918999999999992,0.305,0.061,2.0739999999999985,18,2,1,5,46,2,1,6,6,1,72,6,1,L,0.23736956521739128,0.1525,0.061,0.3456666666666665
20,8,16,1,11,61.79299999999995,15,250,65,61,89,31,62.46399999999995,2.744999999999998,3.2329999999999974,7.014999999999994,18,10,15,14,253,11,23,31,4,0,16,4,1,L,0.24689328063241103,0.24954545454545454,0.14056521739130434,0.22629032258064516
20,9,17,1,14,20.617999999999984,20,86,96,56,113,111,22.630999999999982,10.552999999999992,8.112999999999994,4.635999999999997,20,18,13,12,91,54,20,20,3,0,11,2.75,1,L,0.24869230769230766,0.19542592592592592,0.40564999999999996,0.2318
20,9,18,1,12,60.32899999999995,13,266,40,17,15,20,60.81699999999995,5.062999999999996,15.005999999999988,1.7079999999999989,15,15,18,5,268,28,64,5,5,0.5,41,5.75,1,L,0.22692910447761191,0.18082142857142855,0.23446874999999998,0.34159999999999996
20,10,19,1,14,70.15000000000066,12,279,43,49,92,60,74.05400000000066,0.488,1.4029999999999991,2.8669999999999978,20,2,6,9,300,2,6,17,3,0,16,4,1,L,0.24684666666666663,0.244,0.23383333333333334,0.1686470588235294
20,10,20,1,1,18.055999999999987,19,84,74,84,15,76,18.116999999999987,1.0979999999999994,2.683999999999998,0.183,20,5,8,1,85,5,10,1,3,0.5,24,3.75,1,L,0.21314117647058822,0.2196,0.26839999999999997,0.183
20,11,21,1,3,38.97899999999997,18,158,86,26,36,21,41.72399999999997,0.6099999999999999,2.1349999999999985,10.674999999999992,20,1,4,17,172,1,6,47,5,0,19,4.75,1,L,0.2425813953488372,0.6099999999999999,0.3558333333333333,0.22712765957446807
20,11,22,1,11,80.52000000000186,12,355,66,80,69,37,82.65500000000186,3.1109999999999975,1.0369999999999995,1.4029999999999991,20,10,5,3,365,14,5,4,4,0,16,4,1,L,0.22645205479452052,0.2222142857142857,0.2074,0.35074999999999995
21,1,1,1,15,26.96199999999998,19,126,24,18,69,16,27.632999999999978,1.8299999999999987,16.591999999999988,4.7579999999999965,20,6,17,14,130,7,71,16,6,0.5,40,5.5,1,L,0.21256153846153844,0.2614285714285714,0.2336901408450704,0.29737499999999994
21,1,2,1,7,22.081999999999983,19,106,1,11,58,41,22.142999999999983,8.661999999999994,0.366,6.221999999999995,20,15,4,13,107,38,4,26,6,0,21,5.25,1,L,0.20694392523364485,0.2279473684210526,0.0915,0.23930769230769228
21,2,3,1,7,27.510999999999978,18,124,6,4,7,12,27.754999999999978,2.2569999999999983,0.7929999999999997,4.269999999999997,20,9,3,13,126,11,4,16,6,1,72,6,1,L,0.22027777777777777,0.20518181818181816,0.19824999999999998,0.266875
21,2,4,1,15,27.693999999999978,15,118,22,14,53,84,28.608999999999977,1.3419999999999992,18.482999999999986,9.393999999999993,19,8,16,15,123,9,75,42,6,0,19,4.75,1,L,0.23259349593495932,0.1491111111111111,0.24643999999999996,0.22366666666666665
21,3,5,1,13,50.44699999999996,17,205,111,112,43,110,50.50799999999996,0.6709999999999998,0.8539999999999996,1.3419999999999992,18,4,1,4,206,5,1,4,2,0.5,17,2.75,1,L,0.24518446601941746,0.13419999999999999,0.8539999999999996,0.33549999999999996
21,3,6,1,7,12.62699999999999,17,62,2,10,77,59,12.68799999999999,5.001999999999996,6.465999999999995,9.637999999999993,18,11,15,13,63,26,36,41,6,0,19,4.75,1,L,0.20139682539682538,0.19238461538461535,0.1796111111111111,0.2350731707317073
21,4,7,1,1,37.27099999999997,19,164,77,74,39,107,38.06399999999997,3.781999999999997,3.781999999999997,8.661999999999994,20,8,12,15,166,12,20,38,3,0,13,3.25,1,L,0.2293012048192771,0.31516666666666665,0.18909999999999996,0.22794736842105262
21,4,8,1,15,11.83399999999999,15,58,14,23,17,71,11.89499999999999,3.659999999999997,5.977999999999995,4.147999999999997,16,10,12,9,59,16,22,14,6,0.5,40,5.5,1,L,0.2016101694915254,0.22874999999999998,0.2717272727272727,0.2962857142857142
21,5,9,1,2,35.989999999999974,17,153,54,49,55,109,37.45399999999997,2.622999999999998,0.061,4.513999999999997,20,11,1,10,157,14,1,23,4,0.5,26,3.5,1,L,0.2385605095541401,0.18735714285714283,0.061,0.19626086956521738
21,5,10,1,15,22.996999999999982,20,96,15,18,24,23,23.057999999999982,6.709999999999995,1.4029999999999991,0.061,20,16,7,1,97,32,7,1,6,1,72,6,1,L,0.23771134020618556,0.2096875,0.20042857142857143,0.061
21,6,11,1,11,30.865999999999975,17,128,62,9,71,67,33.061999999999976,0.7929999999999997,0.9149999999999996,0.061,20,3,5,1,140,4,5,1,4,0.5,30,4.5,1,L,0.23615714285714284,0.19824999999999998,0.183,0.061
21,6,12,1,2,37.08799999999997,17,177,52,59,20,22,40.68699999999997,2.8669999999999978,8.295999999999994,10.247999999999992,20,10,14,14,190,11,29,40,4,0,20,5,1,L,0.21414210526315788,0.2606363636363636,0.2860689655172413,0.2562
21,7,13,1,12,30.804999999999975,20,135,43,45,37,46,32.939999999999976,0.8539999999999996,1.2199999999999993,16.04299999999999,20,4,5,15,147,6,6,56,5,1,60,5,1,L,0.22408163265306122,0.14233333333333334,0.20333333333333334,0.2864821428571428
21,7,14,1,2,93.20800000000332,14,378,59,50,95,21,97.05100000000333,0.122,4.391999999999997,0.061,20,1,14,1,398,1,22,1,4,0,17,4.25,1,L,0.24384673366834167,0.122,0.1996363636363636,0.061
21,8,15,1,3,15.554999999999987,20,78,32,35,29,26,15.676999999999987,0.488,0.6099999999999999,2.683999999999998,20,3,3,7,79,3,3,11,5,1,60,5,1,L,0.19844303797468354,0.16266666666666665,0.20333333333333334,0.24399999999999994
21,8,16,1,12,40.25999999999997,20,190,38,40,42,2,41.35799999999997,1.1589999999999994,0.244,2.2569999999999983,20,8,2,6,198,8,2,9,5,0.5,36,5.25,1,L,0.20887878787878786,0.144875,0.122,0.25077777777777777
21,9,17,1,3,67.22200000000032,10,255,36,25,21,71,67.46600000000032,0.5489999999999999,5.489999999999996,23.301999999999982,11,4,11,15,256,4,21,97,5,0,20,5,1,L,0.2635390625,0.13724999999999998,0.2614285714285714,0.2402268041237113
21,9,18,1,7,16.40899999999999,15,88,2,4,3,108,16.469999999999988,1.4029999999999991,2.0739999999999985,8.539999999999994,16,5,6,15,89,8,10,35,6,0.5,38,5,1,L,0.18505617977528088,0.175375,0.20739999999999997,0.24399999999999997
21,10,19,1,2,70.21100000000067,14,320,55,2,9,6,72.22400000000067,2.8669999999999978,2.3179999999999983,5.489999999999996,20,6,9,10,328,9,11,16,4,0.5,40,5.5,1,L,0.22019512195121949,0.31855555555555554,0.2107272727272727,0.34312499999999996
21,10,20,1,15,15.981999999999987,20,84,18,16,85,91,18.543999999999986,4.940999999999996,0.6099999999999999,0.6099999999999999,20,12,2,4,98,16,2,4,6,0,18,4.5,1,L,0.18922448979591835,0.30881249999999993,0.30499999999999994,0.1525
21,11,21,1,3,15.188999999999988,17,77,30,34,32,28,15.615999999999987,1.8299999999999987,2.0129999999999986,0.7319999999999998,19,4,5,5,79,6,5,5,5,1,60,5,1,L,0.19767088607594935,0.30499999999999994,0.40259999999999985,0.1464
21,11,22,1,7,24.21699999999998,16,113,9,2,5,3,25.80299999999998,0.6099999999999999,1.646999999999999,0.366,20,3,4,2,124,3,7,2,6,1,72,6,1,L,0.20808870967741933,0.20333333333333334,0.23528571428571426,0.183
22,1,1,1,14,27.876999999999978,20,125,86,15,91,87,27.937999999999978,11.71199999999999,0.6709999999999998,0.8539999999999996,20,19,2,5,126,64,2,5,3,0.5,24,3.75,1,L,0.22173015873015872,0.183,0.3355,0.1708
