Subject,Round,Phase,afterbreak,Schema,Schema_RT,Schema_OB,Schema_AS,Cho_1,Cho_2,Cho_3,Cho_4,RT_1,RT_2,RT_3,RT_4,OB_1,OB_2,OB_3,OB_4,AS_1,AS_2,AS_3,AS_4,schema_payoff,AC,performance,payoff,breakR,type,dwellmean_1,dwellmean_2,dwellmean_3,dwellmean_4
1,1,1,1,7,9.515999999999993,16,54,3,10,9,86,9.576999999999993,0.366,6.343999999999995,17.750999999999987,17,2,14,16,55,2,31,69,6,0.5,39,5.25,1,L,0.17412727272727271,0.183,0.20464516129032256,0.2572608695652174
1,1,2,1,1,23.91199999999998,17,126,77,79,78,60,23.97299999999998,3.2329999999999974,0.427,5.7949999999999955,18,11,4,13,127,15,4,29,3,0.5,22,3.25,1,L,0.18876377952755904,0.21553333333333333,0.10675,0.19982758620689653
1,2,3,1,12,37.45399999999997,17,148,40,39,37,45,38.06399999999997,2.1349999999999985,10.308999999999992,2.0739999999999985,20,5,17,7,154,5,42,7,5,1,60,5,1,L,0.24716883116883115,0.42699999999999977,0.24545238095238092,0.2962857142857142
1,2,4,1,1,20.800999999999984,20,121,76,23,17,30,22.020999999999983,14.700999999999988,1.4029999999999991,3.3549999999999973,20,18,6,14,123,57,6,17,3,0,20,5,1,L,0.17903252032520325,0.25791228070175437,0.23383333333333334,0.19735294117647056
1,3,5,1,11,33.305999999999976,15,132,14,33,63,21,63.74499999999995,0.061,0.7929999999999997,1.463999999999999,20,1,4,4,252,1,5,4,4,0,21,5.25,1,L,0.2529563492063492,0.061,0.1586,0.366
1,3,6,1,8,47.03099999999996,10,186,101,44,40,8,49.22699999999996,0.488,12.74899999999999,1.646999999999999,20,2,15,8,202,2,59,9,2,0,18,4.5,1,L,0.24369801980198016,0.244,0.21608474576271183,0.183
1,4,7,1,13,19.214999999999986,20,98,114,117,112,115,19.336999999999986,2.744999999999998,0.061,0.244,20,13,1,2,99,14,1,2,2,1,24,2,1,L,0.19532323232323232,0.19607142857142856,0.061,0.122
1,4,8,1,14,29.584999999999976,20,125,44,94,87,92,32.02499999999998,0.488,0.061,0.122,20,4,1,1,133,4,1,1,3,0.5,23,3.5,1,L,0.2407894736842105,0.122,0.061,0.122
1,5,9,1,7,22.813999999999982,15,112,2,4,10,9,22.874999999999982,1.8909999999999987,0.244,1.8299999999999987,16,9,3,4,113,10,4,5,6,1,72,6,1,L,0.20243362831858405,0.1891,0.061,0.36599999999999994
1,5,10,1,2,24.09499999999998,20,107,51,55,37,24,29.218999999999976,0.488,2.622999999999998,6.160999999999995,20,2,9,12,136,2,13,23,4,0,19,4.75,1,L,0.2148455882352941,0.244,0.20176923076923076,0.26786956521739125
1,6,11,1,7,12.01699999999999,17,63,4,11,8,10,12.56599999999999,0.061,2.1959999999999984,1.4029999999999991,20,1,10,3,67,1,11,4,6,1,72,6,1,L,0.18755223880597013,0.061,0.19963636363636364,0.35075
1,6,12,1,1,45.993999999999964,14,198,76,20,41,83,47.64099999999996,5.001999999999996,2.0129999999999986,2.439999999999998,20,14,11,10,204,25,13,13,3,0,17,4.25,1,L,0.2335343137254902,0.20007999999999998,0.15484615384615383,0.18769230769230766
1,7,13,1,2,32.51299999999998,14,138,75,5,31,25,56.60799999999996,3.4159999999999973,0.6099999999999999,3.842999999999997,20,13,3,11,220,17,3,12,4,0,19,4.75,1,L,0.2573090909090909,0.20094117647058823,0.20333333333333334,0.3202499999999999
1,7,14,1,14,38.55199999999997,14,170,89,42,38,17,38.97899999999997,6.587999999999995,16.04299999999999,0.8539999999999996,16,15,18,7,172,30,69,7,3,0,19,4.75,1,L,0.22662209302325578,0.2196,0.23250724637681158,0.122
1,8,15,1,15,27.449999999999978,16,130,14,17,19,22,27.510999999999978,2.9279999999999977,4.452999999999997,0.183,17,11,11,2,131,16,18,2,6,1,72,6,1,L,0.21000763358778626,0.183,0.24738888888888885,0.0915
1,8,16,1,14,12.56599999999999,19,68,106,71,64,1,27.449999999999978,5.306999999999996,7.014999999999994,1.524999999999999,20,17,17,7,145,26,27,8,3,0,16,4,1,L,0.18931034482758619,0.20411538461538462,0.2598148148148148,0.190625
1,9,17,1,13,28.181999999999977,20,144,113,116,118,31,29.096999999999976,0.244,1.524999999999999,2.8669999999999978,20,2,4,7,148,3,4,12,2,0.5,17,2.75,1,L,0.19660135135135134,0.08133333333333333,0.38125,0.23891666666666664
1,9,18,1,8,45.627999999999965,16,206,101,108,107,105,47.82399999999996,0.7319999999999998,0.9149999999999996,1.9519999999999986,20,3,4,5,215,3,4,8,2,1,24,2,1,L,0.22243720930232555,0.244,0.22875,0.244
1,10,19,1,15,9.942999999999993,15,43,13,24,14,19,10.003999999999992,0.6099999999999999,1.0979999999999994,1.2199999999999993,16,1,4,4,44,1,5,4,6,1,72,6,1,L,0.22736363636363635,0.6099999999999999,0.2196,0.30499999999999994
1,10,20,1,3,17.811999999999987,18,86,12,49,25,35,45.383999999999965,1.4029999999999991,0.9759999999999995,4.513999999999997,20,5,2,13,204,5,3,18,5,0,20,5,1,L,0.22247058823529411,0.28059999999999996,0.3253333333333333,0.25077777777777777
1,11,21,1,13,81.49600000000197,15,368,120,9,111,75,86.13200000000197,1.463999999999999,0.183,0.7929999999999997,20,5,1,3,387,5,1,3,2,0,13,3.25,1,L,0.22256330749354003,0.2928,0.183,0.2643333333333333
1,11,22,1,3,34.830999999999975,15,149,28,30,27,102,35.013999999999974,3.842999999999997,0.5489999999999999,2.0129999999999986,16,9,2,8,150,9,2,11,5,0.5,32,4.25,1,L,0.23342666666666664,0.4269999999999999,0.27449999999999997,0.183
2,1,1,1,12,43.12699999999997,11,195,39,8,71,2,44.163999999999966,1.524999999999999,3.1719999999999975,1.0979999999999994,14,5,11,3,198,5,18,3,5,0,21,5.25,1,L,0.22305050505050503,0.30499999999999994,0.17622222222222222,0.366
2,1,2,1,15,14.273999999999988,15,67,16,14,22,24,14.334999999999988,6.038999999999995,2.2569999999999983,1.1589999999999994,16,12,6,7,68,20,7,10,6,1,72,6,1,L,0.21080882352941174,0.30194999999999994,0.32242857142857134,0.1159
2,2,3,1,12,22.508999999999983,20,96,45,43,79,67,25.49799999999998,5.367999999999996,1.646999999999999,1.7079999999999989,20,14,6,7,106,23,7,10,5,0,17,4.25,1,L,0.24054716981132074,0.23339130434782604,0.23528571428571426,0.1708
2,2,4,1,3,30.804999999999975,12,135,33,26,102,21,31.902999999999974,1.8299999999999987,13.785999999999989,1.8299999999999987,18,8,17,7,141,8,55,9,5,0,18,4.5,1,L,0.2262624113475177,0.22875,0.25065454545454546,0.20333333333333334
2,3,5,1,2,22.996999999999982,19,104,59,55,24,21,25.25399999999998,1.524999999999999,0.366,14.212999999999989,20,5,2,17,110,6,3,61,4,0,20,5,1,L,0.22958181818181814,0.25416666666666665,0.122,0.23299999999999996
2,3,6,1,7,43.30999999999997,18,190,10,9,5,2,43.858999999999966,0.122,7.563999999999994,4.879999999999996,20,1,16,12,193,1,33,18,6,1,72,6,1,L,0.22724870466321243,0.122,0.2292121212121212,0.2711111111111111
2,4,7,1,15,22.081999999999983,19,108,21,18,47,59,22.630999999999982,6.8929999999999945,0.8539999999999996,4.147999999999997,20,13,7,14,111,26,7,24,6,0,21,5.25,1,L,0.20388288288288287,0.2651153846153846,0.122,0.1728333333333333
2,4,8,1,7,19.275999999999986,18,103,11,1,6,3,19.519999999999985,8.905999999999993,0.5489999999999999,0.427,20,16,3,4,106,44,3,4,6,1,72,6,1,L,0.1841509433962264,0.2024090909090909,0.183,0.10675
2,5,9,1,13,41.35799999999997,16,187,17,117,111,21,43.675999999999966,1.2809999999999993,0.427,4.208999999999997,20,7,3,10,194,7,3,22,2,0,16,4,1,L,0.22513402061855667,0.183,0.14233333333333334,0.1913181818181818
2,5,10,1,14,17.262999999999987,18,80,96,93,51,59,19.885999999999985,0.7929999999999997,1.3419999999999992,9.820999999999993,20,2,6,16,92,2,7,48,3,0,14,3.5,1,L,0.21615217391304348,0.39649999999999996,0.1917142857142857,0.20460416666666664
2,6,11,1,7,13.48099999999999,12,62,8,9,42,11,13.54199999999999,10.125999999999992,0.244,1.4029999999999991,13,15,2,5,63,33,2,6,6,0.5,41,5.75,1,L,0.21495238095238092,0.3068484848484848,0.122,0.23383333333333334
2,6,12,1,8,34.952999999999975,16,160,99,102,108,106,36.17299999999997,0.183,0.061,1.3419999999999992,20,1,1,7,165,1,1,11,2,1,24,2,1,L,0.21923030303030303,0.183,0.061,0.122
2,7,13,1,12,25.86399999999998,20,114,40,14,23,89,27.693999999999978,3.537999999999997,8.112999999999994,1.3419999999999992,20,9,14,5,121,11,26,7,5,0,20,5,1,L,0.22887603305785123,0.3216363636363636,0.3120384615384615,0.1917142857142857
2,7,14,1,3,18.055999999999987,19,80,33,26,9,107,20.068999999999985,1.585999999999999,20.495999999999984,1.463999999999999,20,5,17,5,93,7,69,5,5,0,18,4.5,1,L,0.21579569892473116,0.22657142857142856,0.2970434782608695,0.2927999999999999
2,8,15,1,7,18.970999999999986,19,89,2,6,4,9,20.312999999999985,0.8539999999999996,1.8299999999999987,0.8539999999999996,20,5,7,5,97,5,8,6,6,1,72,6,1,L,0.20941237113402061,0.1708,0.22874999999999998,0.14233333333333334
2,8,16,1,2,23.301999999999982,19,107,34,33,18,93,47.27499999999996,6.465999999999995,4.025999999999997,1.585999999999999,20,15,11,6,206,29,19,6,4,0,19,4.75,1,L,0.2294902912621359,0.22296551724137928,0.21189473684210525,0.2643333333333333
2,9,17,1,1,35.196999999999974,11,153,16,74,46,45,45.688999999999965,0.7319999999999998,4.818999999999996,0.8539999999999996,20,6,15,3,196,6,25,5,3,0,19,4.75,1,L,0.23310714285714282,0.122,0.19276,0.1708
2,9,18,1,13,50.44699999999996,15,201,111,116,54,8,57.217999999999954,2.0129999999999986,0.183,1.646999999999999,20,8,1,4,225,8,1,4,2,0,14,3.5,1,L,0.2543022222222222,0.251625,0.183,0.41174999999999995
2,10,19,1,12,11.101999999999991,18,72,2,79,46,44,24.76599999999998,0.8539999999999996,0.183,0.122,20,3,1,2,131,3,1,2,5,0,19,4.75,1,L,0.18905343511450381,0.2846666666666667,0.183,0.061
2,10,20,1,2,9.881999999999993,20,57,95,18,56,57,27.44999999999998,1.585999999999999,0.061,0.8539999999999996,20,6,1,4,128,6,1,5,4,0,17,4.25,1,L,0.214453125,0.2643333333333333,0.061,0.17079999999999998
2,11,21,1,2,24.82699999999998,20,117,55,53,47,46,26.10799999999998,3.1109999999999975,5.550999999999996,0.427,20,10,13,3,124,13,23,3,4,0,18,4.5,1,L,0.21054838709677418,0.2393076923076923,0.2413478260869565,0.14233333333333334
2,11,22,1,11,18.604999999999986,20,89,67,72,66,65,18.909999999999986,3.1719999999999975,0.122,1.1589999999999994,20,10,1,5,91,13,1,5,4,1,48,4,1,L,0.2078021978021978,0.24399999999999997,0.122,0.2318
2,12,23,1,13,42.39499999999997,20,183,111,113,17,112,42.63899999999997,0.183,1.3419999999999992,4.635999999999997,20,1,5,10,185,1,7,16,2,0.5,18,3,1,L,0.23048108108108106,0.183,0.1917142857142857,0.28975
2,12,24,1,1,24.58299999999998,14,99,79,74,84,47,25.68099999999998,0.6709999999999998,2.0739999999999985,2.2569999999999983,17,4,9,9,102,5,10,12,3,0.5,23,3.5,1,L,0.2517745098039215,0.13419999999999999,0.20739999999999997,0.18808333333333332
3,1,1,1,13,44.712999999999965,19,197,110,120,109,43,45.505999999999965,0.122,0.7319999999999998,3.4159999999999973,20,1,2,13,199,1,2,17,2,0.5,17,2.75,1,L,0.22867336683417083,0.122,0.36599999999999994,0.20094117647058823
3,1,2,1,3,24.58299999999998,20,107,83,84,107,11,43.24899999999997,18.970999999999986,8.173999999999994,35.623999999999974,20,19,16,17,185,86,32,156,5,0,14,3.5,1,L,0.23377837837837837,0.22059302325581392,0.2554375,0.22835897435897434
3,2,3,1,8,60.69499999999995,18,264,15,103,57,97,72.04099999999994,1.8909999999999987,0.488,1.4029999999999991,20,4,2,7,302,4,2,7,2,0,14,3.5,1,L,0.23854635761589402,0.47274999999999984,0.244,0.20042857142857143
3,2,4,1,7,5.855999999999995,12,30,7,2,12,93,7.563999999999995,0.5489999999999999,0.7319999999999998,9.088999999999993,20,1,4,13,39,1,5,30,6,0.5,39,5.25,1,L,0.19394871794871793,0.5489999999999999,0.1464,0.3029666666666666
3,3,5,1,7,7.502999999999994,14,44,7,6,8,44,8.234999999999994,23.54599999999998,6.709999999999995,0.183,19,18,13,3,50,96,27,3,6,0.5,41,5.75,1,L,0.16469999999999999,0.2452708333333333,0.2485185185185185,0.061
3,3,6,1,11,22.508999999999983,18,107,72,61,66,22,23.85099999999998,1.4029999999999991,4.391999999999997,0.6099999999999999,20,7,11,2,112,8,19,2,4,0.5,30,4.5,1,L,0.21295535714285713,0.175375,0.23115789473684206,0.305
3,4,7,1,1,13.35899999999999,13,62,76,75,78,80,14.944999999999988,0.6709999999999998,1.7689999999999988,0.366,18,3,6,3,70,3,6,3,3,1,36,3,1,L,0.2135,0.22366666666666665,0.29483333333333334,0.122
3,4,8,1,7,20.922999999999984,17,122,4,8,87,67,21.959999999999983,2.1349999999999985,14.700999999999988,0.8539999999999996,19,8,16,3,124,8,67,6,6,0,19,4.75,1,L,0.17709677419354838,0.2668749999999999,0.21941791044776118,0.14233333333333334
3,5,9,1,8,24.94899999999998,17,95,99,106,100,8,25.61999999999998,1.0369999999999995,1.0979999999999994,0.488,20,2,4,2,98,3,4,2,2,0.5,18,3,1,L,0.2614285714285714,0.3456666666666666,0.27449999999999997,0.244
3,5,10,1,12,18.726999999999986,19,88,42,45,46,41,19.275999999999986,1.3419999999999992,0.427,1.4029999999999991,20,3,2,5,92,3,2,5,5,1,60,5,1,L,0.20952173913043476,0.4473333333333331,0.2135,0.2806
3,6,11,1,3,29.828999999999976,20,137,36,28,1,120,32.02499999999998,0.305,10.796999999999992,2.2569999999999983,20,3,18,7,148,3,42,9,5,0,18,4.5,1,L,0.21638513513513513,0.10166666666666667,0.2570714285714285,0.25077777777777777
3,6,12,1,12,65.20900000000009,14,289,42,45,43,21,66.4900000000001,2.805999999999998,2.500999999999998,0.7319999999999998,20,11,8,1,298,13,9,1,5,0.5,36,5.25,1,L,0.22312080536912748,0.21584615384615383,0.2778888888888888,0.7319999999999998
3,7,13,1,3,22.203999999999983,14,102,15,18,28,25,61.30499999999995,6.770999999999995,0.244,1.646999999999999,20,19,3,4,272,28,3,4,5,0,22,5.5,1,L,0.2253860294117647,0.24182142857142852,0.08133333333333333,0.41174999999999984
3,7,14,1,1,20.312999999999985,20,100,82,80,74,3,21.532999999999983,0.9759999999999995,2.683999999999998,0.488,20,6,9,4,105,7,10,4,3,0.5,24,3.75,1,L,0.20507619047619047,0.13942857142857143,0.26839999999999997,0.122
3,8,15,1,7,14.822999999999988,17,67,3,12,5,11,24.76599999999998,2.561999999999998,1.0979999999999994,5.611999999999996,20,14,2,10,96,14,2,16,6,1,72,6,1,L,0.25797916666666665,0.183,0.5489999999999997,0.3507499999999999
3,8,16,1,12,29.096999999999976,20,151,14,38,37,15,31.414999999999974,1.2199999999999993,4.330999999999997,11.650999999999991,20,5,12,16,160,5,19,54,5,0,22,5.5,1,L,0.19634374999999998,0.2439999999999999,0.22794736842105262,0.21575925925925923
3,9,17,1,3,43.00499999999997,18,197,27,29,36,35,43.55399999999997,0.183,1.2199999999999993,1.1589999999999994,20,2,5,3,199,2,5,3,5,1,60,5,1,L,0.21886432160804017,0.0915,0.24399999999999994,0.3863333333333333
3,9,18,1,1,19.458999999999985,19,104,81,80,75,84,20.068999999999985,0.488,5.367999999999996,2.9279999999999977,20,2,14,8,108,2,29,8,3,1,36,3,1,L,0.18582407407407406,0.244,0.18510344827586206,0.36599999999999994
3,10,19,1,2,37.14899999999997,17,160,49,59,56,53,37.51499999999997,3.720999999999997,0.183,3.2329999999999974,20,12,2,11,163,22,2,15,4,1,48,4,1,L,0.23015337423312882,0.1691363636363636,0.0915,0.21553333333333333
3,10,20,1,13,20.739999999999984,19,98,113,120,117,119,21.837999999999983,0.7319999999999998,0.061,0.6709999999999998,20,2,1,3,102,3,1,4,2,1,24,2,1,L,0.21409803921568626,0.244,0.061,0.16775
3,11,21,1,3,17.567999999999987,18,82,34,31,33,26,17.689999999999987,0.366,6.953999999999994,0.6099999999999999,20,2,14,4,84,2,31,5,5,1,60,5,1,L,0.21059523809523809,0.183,0.22432258064516128,0.122
3,11,22,1,2,43.43199999999997,14,188,1,51,52,11,64.41599999999995,0.488,1.7079999999999989,1.8299999999999987,20,5,8,13,280,5,9,15,4,0,20,5,1,L,0.23005714285714285,0.09759999999999999,0.18977777777777777,0.122
4,1,1,1,11,30.560999999999975,19,126,67,64,13,21,36.23399999999997,2.0129999999999986,0.244,0.9759999999999995,20,9,2,3,156,12,2,3,4,0,20,5,1,L,0.23226923076923076,0.16775,0.122,0.3253333333333333
4,1,2,1,1,8.905999999999993,12,41,83,77,6,40,13.114999999999991,0.183,26.71799999999998,0.061,19,2,18,1,53,2,112,1,3,0,17,4.25,1,L,0.24745283018867922,0.0915,0.2385535714285714,0.061
4,2,3,1,12,30.194999999999975,18,114,38,37,23,21,30.499999999999975,0.7319999999999998,13.17599999999999,9.088999999999993,20,4,16,14,118,4,52,39,5,0,22,5.5,1,L,0.2584745762711864,0.183,0.2533846153846153,0.233051282051282
4,2,4,1,2,21.898999999999983,16,89,49,52,50,55,22.996999999999982,23.60699999999998,1.2199999999999993,0.061,20,18,4,1,97,103,4,1,4,1,48,4,1,L,0.2370824742268041,0.22919417475728154,0.30499999999999994,0.061
4,3,5,1,7,20.129999999999985,18,92,1,12,39,37,20.190999999999985,4.452999999999997,2.9279999999999977,12.62699999999999,19,11,8,14,93,21,14,57,6,0,22,5.5,1,L,0.21710752688172041,0.21204761904761904,0.20914285714285713,0.22152631578947365
4,3,6,1,11,52.03299999999996,11,236,69,65,14,25,52.45999999999996,5.306999999999996,8.295999999999994,1.8299999999999987,13,16,17,8,238,25,28,9,4,0,19,4.75,1,L,0.22042016806722686,0.21227999999999997,0.29628571428571426,0.20333333333333334
4,4,7,1,8,24.94899999999998,14,106,107,72,6,2,27.449999999999978,2.8669999999999978,4.574999999999997,15.371999999999987,20,11,11,17,114,13,16,54,2,0,18,4.5,1,L,0.2407894736842105,0.22053846153846154,0.28593749999999996,0.2846666666666666
4,4,8,1,2,18.360999999999986,19,100,51,54,58,49,18.787999999999986,1.2809999999999993,1.0369999999999995,4.7579999999999965,20,4,4,11,103,5,4,19,4,1,48,4,1,L,0.18240776699029126,0.2562,0.25925,0.25042105263157893
4,5,9,1,1,18.238999999999987,20,92,81,82,83,77,18.665999999999986,0.305,0.8539999999999996,1.646999999999999,20,3,5,7,95,3,6,9,3,1,36,3,1,L,0.1964842105263158,0.10166666666666667,0.14233333333333334,0.183
4,5,10,1,14,41.17499999999997,20,184,87,91,93,94,43.736999999999966,0.427,0.061,0.488,20,3,1,3,202,3,1,3,3,1,36,3,1,L,0.216519801980198,0.14233333333333334,0.061,0.16266666666666665
4,6,11,1,1,58.49899999999995,16,238,75,68,81,66,58.68199999999995,4.391999999999997,1.3419999999999992,0.7929999999999997,18,9,7,3,240,13,9,3,3,0,14,3.5,1,L,0.2445083333333333,0.3378461538461538,0.14911111111111108,0.2643333333333333
4,6,12,1,13,11.284999999999991,17,50,118,113,11,116,11.406999999999991,0.427,1.7689999999999988,0.427,18,3,5,2,51,4,6,2,2,0.5,18,3,1,L,0.22366666666666665,0.10675,0.29483333333333334,0.2135
4,7,13,1,2,40.32099999999997,17,185,56,52,55,11,40.56499999999997,2.2569999999999983,2.3179999999999983,1.8299999999999987,20,5,9,8,189,5,9,8,4,0.5,30,4.5,1,L,0.21462962962962961,0.4513999999999998,0.25755555555555554,0.22874999999999998
4,7,14,1,1,17.445999999999987,20,79,80,74,79,24,17.506999999999987,4.269999999999997,1.3419999999999992,4.208999999999997,20,11,5,9,80,17,7,14,3,0.5,24,3.75,1,L,0.2188375,0.2511764705882352,0.1917142857142857,0.3006428571428571
4,8,15,1,13,31.597999999999974,15,149,4,45,118,51,44.590999999999966,0.7319999999999998,7.136999999999994,1.524999999999999,20,3,17,10,207,4,29,11,2,0,17,4.25,1,L,0.21541545893719805,0.183,0.24610344827586203,0.13863636363636364
4,8,16,1,3,20.129999999999985,17,101,81,84,108,16,65.02599999999995,2.744999999999998,0.244,9.454999999999993,20,12,3,17,281,15,3,39,5,0,14,3.5,1,L,0.2314092526690391,0.183,0.08133333333333333,0.2424358974358974
4,9,17,1,3,32.20799999999998,19,139,25,6,3,32,32.939999999999976,7.014999999999994,2.561999999999998,0.366,20,17,8,1,142,31,10,1,5,0,22,5.5,1,L,0.23197183098591548,0.22629032258064513,0.2562,0.366
4,9,18,1,8,27.815999999999978,15,125,99,105,107,65,29.889999999999976,0.5489999999999999,1.463999999999999,3.0499999999999976,20,4,7,10,138,5,7,16,2,0.5,16,2.5,1,L,0.21659420289855072,0.1098,0.20914285714285713,0.190625
4,10,19,1,2,48.43399999999996,15,204,55,59,49,51,50.69099999999996,0.366,0.244,4.025999999999997,20,2,3,13,210,2,3,18,4,1,48,4,1,L,0.24138571428571426,0.183,0.08133333333333333,0.22366666666666665
4,10,20,1,11,19.580999999999985,20,104,33,66,110,67,34.952999999999975,1.0979999999999994,0.061,1.2809999999999993,20,4,1,9,163,4,1,9,4,0,15,3.75,1,L,0.21443558282208589,0.27449999999999997,0.061,0.14233333333333334
4,11,21,1,13,29.645999999999976,20,136,111,113,10,4,32.26899999999998,0.427,1.7689999999999988,2.1349999999999985,20,2,10,7,145,2,12,10,2,0,16,4,1,L,0.2225448275862069,0.2135,0.14741666666666667,0.21349999999999997
4,11,22,1,15,15.981999999999987,17,76,14,18,19,20,17.445999999999987,0.7319999999999998,1.2199999999999993,3.720999999999997,20,4,5,11,80,4,6,21,6,1,72,6,1,L,0.21807499999999996,0.183,0.20333333333333334,0.17719047619047618
5,1,1,1,13,25.68099999999998,18,108,114,119,111,48,27.14499999999998,0.061,1.0979999999999994,4.818999999999996,20,1,4,10,118,1,4,22,2,0.5,17,2.75,1,L,0.2300423728813559,0.061,0.27449999999999997,0.21904545454545452
5,1,2,1,3,37.33199999999997,16,176,29,16,33,18,41.23599999999997,4.086999999999997,9.759999999999993,5.123999999999996,20,13,16,13,194,15,43,21,5,0,22,5.5,1,L,0.21255670103092783,0.27246666666666663,0.2269767441860465,0.24399999999999997
5,2,3,1,14,30.743999999999975,19,145,90,87,72,89,31.048999999999975,2.3789999999999982,2.0739999999999985,0.305,20,4,5,1,148,7,7,1,3,0.5,22,3.25,1,L,0.20979054054054053,0.33985714285714275,0.29628571428571426,0.305
5,2,4,1,2,44.956999999999965,14,184,50,58,15,20,49.59299999999996,1.646999999999999,2.805999999999998,2.0739999999999985,20,7,10,8,204,7,12,11,4,0,20,5,1,L,0.24310294117647058,0.23528571428571424,0.23383333333333334,0.18854545454545454
5,3,5,1,13,12.93199999999999,19,72,118,5,64,47,17.384999999999987,14.639999999999988,0.7929999999999997,0.366,20,18,3,2,91,67,3,2,2,0,17,4.25,1,L,0.19104395604395605,0.21850746268656715,0.26433333333333325,0.183
5,3,6,1,8,21.715999999999983,20,109,104,100,101,105,22.508999999999983,0.366,0.9759999999999995,2.1349999999999985,20,2,6,4,114,3,6,5,2,1,24,2,1,L,0.19744736842105262,0.122,0.16266666666666665,0.42699999999999994
5,4,7,1,12,37.81999999999997,16,148,47,44,38,113,38.18599999999997,2.439999999999998,1.1589999999999994,1.9519999999999986,18,7,4,3,151,9,7,3,5,0.5,32,4.25,1,L,0.252887417218543,0.2711111111111111,0.16557142857142856,0.6506666666666664
5,4,8,1,7,46.603999999999964,17,219,4,10,69,91,46.664999999999964,10.064999999999992,7.380999999999994,4.086999999999997,18,16,15,11,220,46,33,17,6,0,19,4.75,1,L,0.21211363636363634,0.21880434782608696,0.22366666666666665,0.24041176470588232
5,5,9,1,3,25.68099999999998,20,122,32,35,34,26,27.14499999999998,0.061,3.2329999999999974,6.8929999999999945,20,1,14,13,130,1,17,26,5,1,60,5,1,L,0.2088076923076923,0.061,0.19017647058823528,0.2651153846153846
5,5,10,1,15,16.16499999999999,19,67,14,13,15,16,17.628999999999987,15.310999999999988,2.9279999999999977,0.427,20,16,9,3,72,53,11,3,6,1,72,6,1,L,0.24484722222222222,0.28888679245283017,0.26618181818181813,0.14233333333333334
5,6,11,1,2,29.889999999999976,19,121,55,49,18,59,30.438999999999975,2.439999999999998,5.855999999999995,9.759999999999993,20,10,8,16,123,11,18,46,4,0.5,30,4.5,1,L,0.24747154471544713,0.2218181818181818,0.3253333333333333,0.21217391304347824
5,6,12,1,12,17.445999999999987,11,83,42,44,43,70,20.312999999999985,0.122,1.2809999999999993,11.77299999999999,20,2,3,17,96,2,4,45,5,0.5,34,4.75,1,L,0.21159375,0.061,0.32024999999999987,0.2616222222222222
5,7,13,1,3,15.249999999999988,18,79,33,99,53,106,15.371999999999987,27.327999999999978,2.1959999999999984,2.500999999999998,20,19,6,12,81,122,10,13,5,0,13,3.25,1,L,0.18977777777777777,0.22399999999999998,0.2196,0.19238461538461538
5,7,14,1,12,13.29799999999999,19,59,40,48,86,13,13.48099999999999,5.977999999999995,9.576999999999993,3.1719999999999975,20,13,15,9,61,20,39,15,5,0,19,4.75,1,L,0.22099999999999997,0.2989,0.24556410256410255,0.21146666666666664
5,8,15,1,7,7.9299999999999935,13,40,1,6,11,71,8.539999999999994,2.622999999999998,1.0979999999999994,7.014999999999994,17,11,3,15,44,16,3,33,6,0.5,40,5.5,1,L,0.1940909090909091,0.16393749999999999,0.366,0.21257575757575753
5,8,16,1,13,12.62699999999999,15,57,110,117,113,120,15.249999999999988,1.1589999999999994,0.061,0.183,20,5,1,2,65,5,1,2,2,1,24,2,1,L,0.2346153846153846,0.2318,0.061,0.0915
5,9,17,1,3,50.38599999999996,15,213,26,36,103,32,51.36199999999996,1.4029999999999991,0.5489999999999999,2.805999999999998,19,8,1,9,217,8,1,11,5,0.5,32,4.25,1,L,0.2366912442396313,0.175375,0.5489999999999999,0.25509090909090903
5,9,18,1,12,25.61999999999998,20,117,39,44,41,40,25.68099999999998,0.9149999999999996,1.4029999999999991,2.0739999999999985,20,6,5,7,118,6,6,8,5,1,60,5,1,L,0.21763559322033896,0.1525,0.2338333333333333,0.25925
5,10,19,1,11,23.66799999999998,20,123,63,69,67,6,26.90099999999998,0.5489999999999999,1.1589999999999994,5.550999999999996,20,5,4,13,136,5,5,24,4,0.5,30,4.5,1,L,0.19780147058823527,0.1098,0.2318,0.23129166666666665
5,10,20,1,15,18.787999999999986,13,92,15,17,97,22,18.848999999999986,12.26099999999999,0.305,1.2199999999999993,14,18,2,6,93,47,2,7,6,0.5,38,5,1,L,0.2026774193548387,0.26087234042553187,0.1525,0.1742857142857143
5,11,21,1,13,34.220999999999975,16,171,117,115,119,120,34.647999999999975,0.7929999999999997,1.463999999999999,0.488,20,3,5,3,176,4,6,3,2,1,24,2,1,L,0.19686363636363635,0.19824999999999998,0.2439999999999999,0.16266666666666665
5,11,22,1,3,22.691999999999982,16,116,25,36,26,27,22.874999999999982,0.305,7.014999999999994,2.0739999999999985,18,2,13,6,118,2,22,6,5,1,60,5,1,L,0.1938559322033898,0.1525,0.3188636363636363,0.3456666666666666
5,12,23,1,2,18.726999999999986,13,94,49,60,58,104,19.458999999999985,2.3179999999999983,0.061,23.91199999999998,16,9,1,14,97,9,1,84,4,0.5,26,3.5,1,L,0.2006082474226804,0.25755555555555554,0.061,0.2846666666666666
5,12,24,1,7,9.637999999999993,9,42,10,71,61,12,10.064999999999992,2.8669999999999978,0.488,9.576999999999993,11,9,1,14,44,12,1,39,6,0,20,5,1,L,0.22874999999999998,0.23891666666666664,0.488,0.24556410256410252
6,1,1,1,1,24.15599999999998,17,108,78,84,80,73,24.82699999999998,1.585999999999999,0.7929999999999997,0.244,20,5,5,2,113,6,5,2,3,1,36,3,1,L,0.2197079646017699,0.26433333333333325,0.1586,0.122
6,1,2,1,14,18.421999999999986,20,104,91,90,85,32,19.641999999999985,1.3419999999999992,1.7689999999999988,9.820999999999993,20,5,5,16,111,6,6,41,3,0.5,23,3.5,1,L,0.17695495495495495,0.22366666666666665,0.2948333333333333,0.23953658536585362
6,2,3,1,7,23.91199999999998,17,123,9,2,3,6,24.39999999999998,1.0369999999999995,0.427,7.746999999999994,19,4,2,14,125,4,2,37,6,1,72,6,1,L,0.19519999999999998,0.25925,0.2135,0.20937837837837836
6,2,4,1,2,16.713999999999988,19,84,51,60,54,106,17.811999999999987,2.683999999999998,0.7319999999999998,7.807999999999994,20,10,6,15,90,16,6,32,4,0.5,26,3.5,1,L,0.1979111111111111,0.16775,0.122,0.24399999999999994
6,3,5,1,2,30.194999999999975,16,112,47,37,58,49,41.17499999999997,7.990999999999993,2.8669999999999978,0.305,20,13,9,3,161,27,10,3,4,0,18,4.5,1,L,0.2557453416149068,0.29596296296296293,0.28669999999999995,0.10166666666666667
6,3,6,1,15,26.77899999999998,18,134,13,23,63,25,26.83999999999998,0.6099999999999999,8.478999999999994,4.940999999999996,19,4,15,10,135,4,29,17,6,0,21,5.25,1,L,0.1988148148148148,0.1525,0.29237931034482756,0.29064705882352937
6,4,7,1,7,14.944999999999988,19,68,5,4,8,10,16.16499999999999,2.0739999999999985,0.183,0.366,20,8,2,2,72,9,2,2,6,1,72,6,1,L,0.22451388888888887,0.23044444444444442,0.0915,0.183
6,4,8,1,15,17.750999999999987,18,102,21,68,64,37,17.811999999999987,8.417999999999994,6.343999999999995,0.366,19,15,12,1,103,40,27,1,6,0,19,4.75,1,L,0.17293203883495145,0.21045,0.23496296296296296,0.366
6,5,9,1,7,17.262999999999987,20,84,2,3,4,43,17.323999999999987,12.44399999999999,1.2809999999999993,0.6099999999999999,20,18,10,3,85,74,11,3,6,0.5,41,5.75,1,L,0.20381176470588233,0.16816216216216215,0.11645454545454545,0.20333333333333334
6,5,10,1,1,31.109999999999975,13,134,17,18,19,76,48.98299999999996,1.2809999999999993,0.7929999999999997,0.061,20,5,4,1,215,5,4,1,3,0.5,39,5.25,1,L,0.22782790697674415,0.2562,0.19824999999999998,0.061
6,6,11,1,14,18.421999999999986,20,98,96,90,42,38,19.702999999999985,6.099999999999995,5.977999999999995,4.147999999999997,20,13,12,11,101,25,22,16,3,0,16,4,1,L,0.19507920792079206,0.24399999999999994,0.2717272727272727,0.25925
6,6,12,1,2,7.624999999999994,17,33,83,105,80,81,40.93099999999997,5.367999999999996,1.3419999999999992,3.1109999999999975,20,14,4,13,175,28,6,16,4,0.5,20,2.75,1,L,0.23389142857142856,0.1917142857142857,0.22366666666666665,0.19443749999999999
6,7,13,1,1,27.937999999999978,20,128,77,81,54,16,28.120999999999977,1.9519999999999986,11.162999999999991,1.585999999999999,20,6,16,5,130,7,49,9,3,0,16,4,1,L,0.2163153846153846,0.27885714285714286,0.22781632653061223,0.17622222222222222
6,7,14,1,11,17.384999999999987,14,83,64,62,68,38,17.445999999999987,1.9519999999999986,3.842999999999997,11.162999999999991,15,7,8,14,84,11,18,44,4,0.5,29,4.25,1,L,0.20769047619047618,0.17745454545454545,0.21349999999999997,0.2537045454545454
6,8,15,1,14,55.021999999999956,15,244,2,1,67,95,90.95099999999994,36.29499999999997,0.061,0.061,20,19,1,1,381,146,1,1,3,0,19,4.75,1,L,0.23871653543307084,0.24859589041095886,0.061,0.061
6,8,16,1,15,13.968999999999989,18,84,15,16,21,48,16.04299999999999,0.061,1.1589999999999994,11.406999999999991,20,1,6,17,97,1,6,56,6,0.5,41,5.75,1,L,0.16539175257731958,0.061,0.19316666666666665,0.20369642857142856
6,9,17,1,7,22.691999999999982,20,103,5,4,7,32,24.70499999999998,0.366,2.9279999999999977,3.781999999999997,20,1,11,11,110,1,12,17,6,0.5,41,5.75,1,L,0.22459090909090906,0.366,0.24399999999999997,0.22247058823529411
6,9,18,1,12,23.66799999999998,16,115,15,40,38,60,50.08099999999996,0.183,0.366,1.8299999999999987,20,3,3,8,238,3,3,8,5,0,20,5,1,L,0.21042436974789913,0.061,0.122,0.22875
6,10,19,1,7,20.190999999999985,15,103,3,6,5,87,20.251999999999985,5.428999999999996,0.183,2.3789999999999982,16,12,1,5,104,22,1,6,6,0.5,39,5.25,1,L,0.1947307692307692,0.24677272727272725,0.183,0.3964999999999999
6,10,20,1,8,13.724999999999989,18,70,102,106,108,14,14.578999999999988,4.452999999999997,1.3419999999999992,4.086999999999997,20,10,5,9,74,17,6,18,2,0.5,18,3,1,L,0.1970135135135135,0.2619411764705882,0.22366666666666665,0.22705555555555554
6,11,21,1,8,28.303999999999977,18,120,102,101,5,3,28.547999999999977,0.9759999999999995,13.35899999999999,15.554999999999987,19,6,16,15,121,6,56,57,2,0,16,4,1,L,0.23593388429752063,0.16266666666666665,0.2385535714285714,0.27289473684210525
6,11,22,1,15,25.13199999999998,20,133,17,19,18,22,25.19299999999998,0.122,0.7319999999999998,5.184999999999996,20,1,2,13,134,1,4,25,6,1,72,6,1,L,0.18800746268656715,0.122,0.183,0.20739999999999997
6,12,23,1,12,23.66799999999998,20,103,42,37,45,5,24.46099999999998,1.8299999999999987,7.014999999999994,2.9889999999999977,20,7,14,11,107,7,27,14,5,0.5,36,5.25,1,L,0.228607476635514,0.2614285714285714,0.2598148148148148,0.2135
6,12,24,1,1,12.56599999999999,19,52,80,78,73,84,13.11499999999999,2.439999999999998,2.1959999999999984,2.0129999999999986,20,7,8,8,54,7,10,8,3,1,36,3,1,L,0.24287037037037035,0.3485714285714285,0.2196,0.251625
7,1,1,1,7,26.90099999999998,18,101,11,6,34,36,26.96199999999998,0.427,3.537999999999997,4.574999999999997,19,3,12,11,102,4,20,17,6,0,22,5.5,1,L,0.2643333333333333,0.10675,0.1769,0.2691176470588235
7,1,2,1,15,11.467999999999991,14,52,18,14,21,23,11.528999999999991,3.1719999999999975,4.7579999999999965,3.0499999999999976,15,9,11,10,53,12,15,17,6,1,72,6,1,L,0.21752830188679242,0.2643333333333333,0.3171999999999999,0.17941176470588235
7,2,3,1,7,27.388999999999978,18,121,12,9,7,56,30.987999999999975,2.9279999999999977,0.8539999999999996,9.454999999999993,20,8,3,16,136,10,3,48,6,0.5,40,5.5,1,L,0.22785294117647056,0.29279999999999995,0.2846666666666667,0.19697916666666665
7,2,4,1,11,26.90099999999998,14,123,61,48,43,37,27.754999999999978,13.846999999999989,3.842999999999997,0.488,19,18,11,3,129,54,13,3,4,0.5,34,4.75,1,L,0.21515503875968991,0.2564259259259259,0.29561538461538456,0.16266666666666665
7,3,5,1,2,32.45199999999998,19,146,50,17,52,13,39.71099999999997,8.539999999999994,0.427,2.439999999999998,20,17,3,6,179,38,3,7,4,0,20,5,1,L,0.22184916201117316,0.22473684210526312,0.14233333333333334,0.34857142857142853
7,3,6,1,12,41.78499999999997,19,189,41,44,40,80,42.94399999999997,2.1959999999999984,1.0369999999999995,8.783999999999994,20,5,6,15,197,5,7,31,5,0.5,33,4.5,1,L,0.217989847715736,0.4391999999999999,0.14814285714285713,0.28335483870967737
7,4,7,1,13,12.99299999999999,20,70,116,118,112,67,14.334999999999988,1.7689999999999988,1.9519999999999986,10.979999999999992,20,6,8,14,78,9,8,37,2,0.5,16,2.5,1,L,0.18378205128205127,0.19655555555555554,0.244,0.2967567567567567
7,4,8,1,8,16.469999999999988,19,86,100,24,50,13,16.530999999999988,10.796999999999992,4.574999999999997,12.74899999999999,20,15,12,16,87,34,18,46,2,0,18,4.5,1,L,0.19001149425287356,0.3175588235294117,0.2541666666666666,0.2771521739130435
7,5,9,1,15,11.223999999999991,15,55,15,16,22,63,12.01699999999999,2.0129999999999986,18.421999999999986,0.7929999999999997,18,4,16,2,58,5,66,3,6,0.5,40,5.5,1,L,0.20718965517241378,0.40259999999999985,0.2791212121212121,0.2643333333333333
7,5,10,1,2,13.05399999999999,19,68,57,59,55,56,13.48099999999999,2.3179999999999983,3.842999999999997,3.1719999999999975,20,7,11,12,73,9,18,18,4,1,48,4,1,L,0.18467123287671233,0.25755555555555554,0.2135,0.17622222222222222
7,6,11,1,2,46.420999999999964,19,200,35,102,55,93,48.67799999999996,0.9149999999999996,0.305,1.3419999999999992,20,2,2,6,211,2,2,8,4,0,14,3.5,1,L,0.23070142180094785,0.4574999999999999,0.1525,0.16775
7,6,12,1,7,15.981999999999987,18,75,7,9,10,74,17.994999999999987,0.061,3.598999999999997,2.2569999999999983,20,1,12,8,82,1,18,10,6,0.5,39,5.25,1,L,0.2194512195121951,0.061,0.19994444444444445,0.22569999999999996
7,7,13,1,15,6.648999999999995,15,37,21,19,105,23,8.295999999999994,9.759999999999993,1.463999999999999,0.488,20,15,6,4,47,44,6,4,6,0.5,38,5,1,L,0.17651063829787234,0.2218181818181818,0.24399999999999997,0.122
7,7,14,1,2,19.580999999999985,18,102,50,51,92,57,21.471999999999984,0.8539999999999996,6.587999999999995,4.391999999999997,20,5,15,9,111,5,32,17,4,0.5,27,3.75,1,L,0.19344144144144143,0.1708,0.20587499999999997,0.25835294117647056
7,8,15,1,7,63.19599999999995,10,267,5,33,9,8,64.84299999999995,0.427,1.7079999999999989,4.513999999999997,19,2,6,14,276,3,7,23,6,0.5,41,5.75,1,L,0.23493840579710143,0.14233333333333334,0.24399999999999994,0.19626086956521738
7,8,16,1,2,24.33899999999998,16,98,58,51,53,49,27.08399999999998,2.0129999999999986,0.427,6.221999999999995,20,9,2,13,104,11,2,23,4,1,48,4,1,L,0.26042307692307687,0.183,0.2135,0.27052173913043476
7,9,17,1,13,11.71199999999999,19,66,114,118,109,79,12.13899999999999,1.0979999999999994,5.489999999999996,0.183,20,3,11,1,68,3,24,1,2,0.5,15,2.25,1,L,0.17851470588235294,0.3659999999999999,0.22874999999999998,0.183
7,9,18,1,7,19.092999999999986,19,100,3,1,10,37,19.153999999999986,7.319999999999994,1.0369999999999995,20.800999999999984,20,14,4,16,101,37,4,95,6,0.5,41,5.75,1,L,0.18964356435643565,0.19783783783783782,0.25925,0.21895789473684207
7,10,19,1,12,56.424999999999955,12,249,45,39,38,42,58.74299999999995,0.244,0.122,2.500999999999998,20,2,1,9,260,2,1,16,5,1,60,5,1,L,0.22593461538461534,0.122,0.122,0.1563125
7,10,20,1,3,15.310999999999988,20,65,28,27,29,77,15.371999999999987,0.244,2.0129999999999986,11.528999999999991,20,2,6,15,66,2,8,34,5,0.5,33,4.5,1,L,0.2329090909090909,0.122,0.251625,0.3390882352941176
7,11,21,1,2,36.11199999999997,12,151,118,119,1,49,54.838999999999956,32.63499999999998,3.781999999999997,0.305,20,19,12,2,235,144,18,2,4,0,14,3.5,1,L,0.23335744680851062,0.22663194444444443,0.21011111111111108,0.1525
7,11,22,1,3,11.162999999999991,20,55,34,85,90,103,22.874999999999982,0.7929999999999997,7.563999999999994,5.062999999999996,20,3,16,12,100,4,33,21,5,0,13,3.25,1,L,0.22874999999999995,0.19824999999999998,0.2292121212121212,0.24109523809523806
8,1,1,1,3,24.03399999999998,18,118,29,30,31,3,24.39999999999998,1.4029999999999991,4.940999999999996,6.8929999999999945,20,6,13,13,121,7,20,29,5,0.5,36,5.25,1,L,0.20165289256198346,0.20042857142857143,0.24705,0.23768965517241378
8,1,2,1,15,38.36899999999997,12,170,16,21,47,93,38.42999999999997,3.0499999999999976,8.600999999999994,1.0369999999999995,13,11,16,2,171,13,43,2,6,0,20,5,1,L,0.22473684210526315,0.2346153846153846,0.20002325581395347,0.5184999999999998
8,2,3,1,11,26.04699999999998,20,126,64,68,63,65,27.632999999999978,0.7929999999999997,0.9759999999999995,2.9889999999999977,20,5,4,11,133,6,4,14,4,1,48,4,1,L,0.20776691729323307,0.13216666666666665,0.244,0.2135
8,2,4,1,2,5.916999999999995,7,24,49,55,53,51,6.099999999999995,0.8539999999999996,2.9279999999999977,2.500999999999998,8,5,9,7,25,5,10,9,4,1,48,4,1,L,0.244,0.1708,0.29279999999999995,0.27788888888888885
8,3,5,1,15,21.959999999999983,13,102,16,23,24,17,22.081999999999983,0.9149999999999996,5.611999999999996,4.391999999999997,15,5,15,10,104,6,26,19,6,1,72,6,1,L,0.21232692307692305,0.1525,0.21584615384615383,0.2311578947368421
8,3,6,1,12,38.30799999999997,13,167,37,2,41,45,40.74799999999997,2.439999999999998,1.2809999999999993,0.183,20,8,7,2,178,15,7,2,5,0.5,36,5.25,1,L,0.22892134831460673,0.16266666666666665,0.183,0.0915
8,4,7,1,3,23.54599999999998,16,107,25,26,29,10,27.510999999999978,0.6099999999999999,3.537999999999997,8.356999999999994,20,4,12,15,123,4,19,41,5,0.5,36,5.25,1,L,0.22366666666666665,0.1525,0.18621052631578947,0.2038292682926829
8,4,8,1,12,16.835999999999988,19,95,48,15,42,14,16.896999999999988,5.611999999999996,2.439999999999998,16.22599999999999,20,13,10,16,96,21,11,64,5,0,22,5.5,1,L,0.17601041666666667,0.2672380952380952,0.2218181818181818,0.25353125
8,5,9,1,11,32.45199999999998,17,157,70,61,69,64,33.122999999999976,2.683999999999998,0.9759999999999995,2.9889999999999977,20,9,4,7,161,10,5,12,4,1,48,4,1,L,0.20573291925465836,0.26839999999999997,0.19519999999999998,0.24908333333333327
8,5,10,1,2,30.865999999999975,15,145,53,60,59,15,31.231999999999974,2.2569999999999983,4.879999999999996,17.262999999999987,17,8,10,16,148,10,14,81,4,0.5,30,4.5,1,L,0.21102702702702703,0.22569999999999998,0.3485714285714285,0.21312345679012343
8,6,11,1,11,23.85099999999998,19,116,1,3,71,69,55.143999999999956,0.122,0.8539999999999996,0.061,20,1,3,1,261,1,3,1,4,0,20,5,1,L,0.21127969348659,0.122,0.2846666666666667,0.061
8,6,12,1,15,12.44399999999999,17,62,22,19,18,44,14.517999999999988,0.122,0.9149999999999996,3.3549999999999973,20,1,3,10,70,1,3,11,6,0.5,41,5.75,1,L,0.2074,0.122,0.305,0.30499999999999994
8,7,13,1,15,19.702999999999985,11,77,13,16,17,43,20.495999999999984,6.343999999999995,2.683999999999998,176.0460000000129,14,15,8,15,80,28,12,730,6,0.5,41,5.75,1,L,0.2562,0.22657142857142856,0.22366666666666665,0.241158904109589
8,7,14,1,7,25.92499999999998,20,127,5,97,36,35,25.98599999999998,6.404999999999995,0.244,1.7689999999999988,20,16,1,4,128,25,1,6,6,0,18,4.5,1,L,0.20301562499999998,0.2562,0.244,0.29483333333333334
8,8,15,1,7,20.373999999999985,19,91,5,3,9,11,20.434999999999985,5.855999999999995,1.646999999999999,0.6709999999999998,20,14,8,4,92,27,8,4,6,1,72,6,1,L,0.2221195652173913,0.21688888888888888,0.20587499999999997,0.16775
8,8,16,1,15,66.1240000000002,15,266,47,45,14,20,66.5510000000002,0.6099999999999999,7.258999999999994,1.3419999999999992,18,3,12,4,269,3,28,5,6,0,22,5.5,1,L,0.24740148698884754,0.20333333333333334,0.25925,0.26839999999999997
8,9,17,1,15,14.822999999999988,19,80,13,14,17,18,19.885999999999985,1.0369999999999995,2.561999999999998,0.9149999999999996,20,6,9,3,92,6,10,3,6,1,72,6,1,L,0.21615217391304345,0.17283333333333334,0.2562,0.305
8,9,18,1,2,13.968999999999989,17,73,53,94,86,35,14.029999999999989,24.39999999999998,9.088999999999993,7.441999999999994,18,19,16,14,74,102,40,31,4,0,15,3.75,1,L,0.18959459459459457,0.2392156862745098,0.22722499999999998,0.24006451612903223
8,10,19,1,1,18.177999999999987,19,89,74,75,82,39,19.763999999999985,0.183,3.1719999999999975,3.9649999999999967,20,2,12,12,95,2,18,19,3,0.5,23,3.5,1,L,0.2080421052631579,0.0915,0.1762222222222222,0.20868421052631578
8,10,20,1,3,25.13199999999998,20,123,31,35,36,20,25.25399999999998,0.122,2.622999999999998,8.173999999999994,20,1,9,16,125,1,14,33,5,0.5,36,5.25,1,L,0.202032,0.122,0.18735714285714283,0.24769696969696967
8,11,21,1,7,12.50499999999999,14,66,6,42,8,11,12.56599999999999,3.476999999999997,0.061,2.0739999999999985,15,10,1,6,67,14,1,7,6,0.5,41,5.75,1,L,0.18755223880597013,0.24835714285714286,0.061,0.2962857142857142
8,11,22,1,15,11.95599999999999,15,64,13,24,21,28,12.01699999999999,2.0129999999999986,5.428999999999996,0.244,16,9,15,3,65,14,28,3,6,0.5,41,5.75,1,L,0.18487692307692308,0.1437857142857143,0.19389285714285714,0.08133333333333333
9,1,1,1,3,19.885999999999985,19,92,25,6,4,26,20.251999999999985,21.654999999999983,10.552999999999992,0.9149999999999996,20,19,17,5,96,84,47,5,5,0,22,5.5,1,L,0.2109583333333333,0.257797619047619,0.224531914893617,0.183
9,1,2,1,15,19.214999999999986,20,79,16,14,15,21,20.739999999999984,1.8909999999999987,2.2569999999999983,0.305,20,6,7,1,81,9,8,1,6,1,72,6,1,L,0.2560493827160494,0.2101111111111111,0.28212499999999996,0.305
9,2,3,1,11,52.03299999999996,14,219,4,31,119,3,54.899999999999956,33.427999999999976,0.244,0.122,20,18,1,1,231,125,2,1,4,0,19,4.75,1,L,0.23766233766233763,0.26742399999999994,0.122,0.122
9,2,4,1,12,32.32999999999998,18,165,44,41,46,21,33.793999999999976,9.576999999999993,0.122,7.197999999999994,20,12,2,14,169,29,2,34,5,0.5,36,5.25,1,L,0.1999644970414201,0.33024137931034475,0.061,0.21170588235294116
9,3,5,1,15,68.8080000000005,10,262,20,80,19,27,72.2240000000005,1.646999999999999,0.061,1.0369999999999995,19,6,1,7,274,6,1,9,6,0,20,5,1,L,0.2635912408759124,0.27449999999999997,0.061,0.11522222222222223
9,3,6,1,14,11.528999999999991,17,63,94,91,90,87,12.80999999999999,0.366,0.6099999999999999,4.940999999999996,20,2,5,14,67,2,5,22,3,1,36,3,1,L,0.19119402985074627,0.183,0.122,0.22459090909090906
9,4,7,1,11,43.30999999999997,13,190,13,18,43,64,65.57499999999995,0.183,0.488,0.8539999999999996,20,1,2,4,286,1,2,4,4,0,21,5.25,1,L,0.22928321678321675,0.183,0.244,0.21349999999999997
9,4,8,1,13,11.345999999999991,17,48,116,56,59,112,15.49399999999999,6.8929999999999945,2.683999999999998,0.061,20,13,7,1,63,28,9,1,2,0,12,3,1,L,0.24593650793650793,0.24617857142857136,0.29822222222222217,0.061
9,5,9,1,12,18.421999999999986,20,92,43,47,56,10,19.824999999999985,0.6709999999999998,9.027999999999993,1.1589999999999994,20,3,17,6,100,3,42,6,5,0,20,5,1,L,0.19824999999999998,0.22366666666666665,0.21495238095238095,0.19316666666666665
9,5,10,1,15,12.62699999999999,16,66,15,21,33,35,12.68799999999999,0.6709999999999998,8.844999999999994,2.2569999999999983,17,1,15,9,67,2,49,13,6,0,22,5.5,1,L,0.1893731343283582,0.3355,0.18051020408163265,0.17361538461538462
9,6,11,1,7,12.01699999999999,16,60,6,32,115,12,12.07799999999999,7.380999999999994,1.524999999999999,1.0369999999999995,17,14,5,4,61,24,5,5,6,0,19,4.75,1,L,0.19799999999999998,0.3075416666666666,0.305,0.20739999999999997
9,6,12,1,15,11.77299999999999,18,63,18,23,108,19,11.83399999999999,0.183,6.465999999999995,5.001999999999996,19,2,11,11,64,2,24,19,6,0.5,38,5,1,L,0.18490625,0.0915,0.26941666666666664,0.2632631578947368
9,7,13,1,7,14.334999999999988,18,62,3,4,8,46,16.16499999999999,5.428999999999996,0.6099999999999999,1.4029999999999991,20,12,4,4,69,23,4,4,6,0.5,41,5.75,1,L,0.23427536231884055,0.23604347826086955,0.1525,0.35074999999999995
9,7,14,1,14,6.587999999999995,13,30,17,27,20,89,50.26399999999996,0.061,0.061,0.061,20,1,1,1,206,1,1,1,3,0,20,5,1,L,0.24399999999999997,0.061,0.061,0.061
9,8,15,1,2,18.665999999999986,20,80,51,55,14,80,20.190999999999985,7.563999999999994,7.746999999999994,13.846999999999989,20,14,14,16,90,30,27,57,4,0,17,4.25,1,L,0.22434444444444443,0.25213333333333326,0.28692592592592586,0.24292982456140347
9,8,16,1,11,20.068999999999985,18,91,64,69,61,68,20.495999999999984,0.7319999999999998,5.916999999999995,1.3419999999999992,20,2,14,6,93,2,23,7,4,1,48,4,1,L,0.22038709677419355,0.366,0.2572608695652174,0.1917142857142857
9,9,17,1,3,23.057999999999982,18,118,36,25,31,29,25.13199999999998,1.9519999999999986,5.428999999999996,0.122,20,6,14,1,130,6,22,1,5,1,60,5,1,L,0.1933230769230769,0.3253333333333332,0.24677272727272723,0.122
9,9,18,1,7,16.04299999999999,15,78,1,12,8,60,16.10399999999999,2.1349999999999985,3.720999999999997,0.061,16,9,10,1,79,15,20,1,6,0.5,40,5.5,1,L,0.20384810126582276,0.1423333333333333,0.18605,0.061
9,10,19,1,1,21.044999999999984,20,109,1,73,110,32,46.115999999999964,0.6709999999999998,1.4029999999999991,2.3789999999999982,20,4,6,10,219,4,7,14,3,0,16,4,1,L,0.2105753424657534,0.16775,0.20042857142857143,0.16992857142857143
9,10,20,1,8,29.096999999999976,16,119,100,98,15,13,31.109999999999975,1.8299999999999987,3.3549999999999973,0.8539999999999996,20,7,9,3,126,7,13,3,2,0,16,4,1,L,0.24690476190476188,0.2614285714285714,0.25807692307692304,0.2846666666666667
9,11,21,1,12,18.055999999999987,14,89,44,98,102,104,20.129999999999985,22.264999999999983,2.622999999999998,0.183,20,18,11,2,100,103,12,2,5,0.5,17,2.75,1,L,0.20129999999999998,0.21616504854368931,0.21858333333333332,0.0915
9,11,22,1,3,37.14899999999997,19,172,27,26,120,11,38.97899999999997,6.648999999999995,27.266999999999978,8.539999999999994,20,15,17,15,176,26,129,39,5,0,18,4.5,1,L,0.22147159090909088,0.2557307692307692,0.2113720930232558,0.21897435897435896
10,1,1,1,7,19.885999999999985,19,93,7,11,6,9,19.946999999999985,1.646999999999999,1.4029999999999991,0.122,20,8,3,1,94,10,3,1,6,1,72,6,1,L,0.21220212765957444,0.16469999999999999,0.46766666666666645,0.122
10,1,2,1,12,40.86999999999997,16,191,48,41,40,80,43.61499999999997,0.305,1.4029999999999991,1.524999999999999,20,2,4,4,204,2,4,6,5,0.5,33,4.5,1,L,0.21379901960784312,0.1525,0.3507499999999999,0.25416666666666665
10,2,3,1,2,23.362999999999982,20,118,50,17,101,21,24.76599999999998,9.698999999999993,5.550999999999996,4.940999999999996,20,14,13,13,123,36,20,20,4,0,18,4.5,1,L,0.20134959349593495,0.26941666666666664,0.27754999999999996,0.24705
10,2,4,1,7,12.62699999999999,19,55,1,5,6,7,12.68799999999999,7.441999999999994,0.9759999999999995,0.9149999999999996,20,13,3,6,56,26,3,6,6,1,72,6,1,L,0.22657142857142856,0.2862307692307692,0.3253333333333333,0.1525
10,3,5,1,11,43.37099999999997,16,219,63,62,45,43,46.176999999999964,0.183,8.722999999999994,3.720999999999997,20,1,17,14,235,1,32,18,4,0,18,4.5,1,L,0.1964978723404255,0.183,0.27259374999999997,0.2067222222222222
10,3,6,1,15,15.737999999999987,20,85,15,20,19,21,18.787999999999986,1.4029999999999991,2.1349999999999985,3.903999999999997,20,8,8,8,103,8,11,9,6,1,72,6,1,L,0.18240776699029124,0.175375,0.19409090909090906,0.4337777777777777
10,4,7,1,8,13.17599999999999,20,63,104,107,106,75,13.48099999999999,0.427,0.122,49.22699999999996,20,2,1,17,64,2,1,191,2,0.5,15,2.25,1,L,0.210640625,0.2135,0.122,0.2577329842931937
10,4,8,1,14,46.84799999999996,18,216,96,88,17,24,47.51899999999996,0.8539999999999996,4.940999999999996,8.539999999999994,20,3,13,12,221,3,28,40,3,0,18,4.5,1,L,0.2150180995475113,0.2846666666666666,0.1764642857142857,0.2135
10,5,9,1,11,30.255999999999975,20,150,63,72,37,45,30.621999999999975,6.587999999999995,2.1959999999999984,2.683999999999998,20,14,7,7,151,29,10,9,4,0,18,4.5,1,L,0.20279470198675495,0.22717241379310343,0.2196,0.29822222222222217
10,5,10,1,14,16.957999999999988,13,80,96,88,89,17,19.397999999999985,0.9759999999999995,4.208999999999997,9.759999999999993,20,4,13,14,91,4,16,37,3,0.5,24,3.75,1,L,0.21316483516483514,0.244,0.2630625,0.26378378378378375
10,6,11,1,11,29.950999999999976,16,140,69,68,65,9,30.255999999999975,0.427,3.2329999999999974,21.959999999999983,18,3,9,17,142,3,9,91,4,0.5,30,4.5,1,L,0.21307042253521125,0.14233333333333334,0.3592222222222221,0.24131868131868128
10,6,12,1,1,21.959999999999983,19,113,83,73,17,13,22.386999999999983,1.2199999999999993,8.417999999999994,10.979999999999992,20,4,15,17,116,5,34,39,3,0,18,4.5,1,L,0.19299137931034482,0.244,0.2475882352941176,0.2815384615384615
10,7,13,1,11,23.97299999999998,18,114,64,61,67,17,24.76599999999998,1.4029999999999991,0.7929999999999997,6.404999999999995,20,8,7,13,119,11,7,22,4,0.5,30,4.5,1,L,0.20811764705882352,0.12754545454545455,0.11328571428571428,0.2911363636363636
10,7,14,1,3,16.34799999999999,9,69,28,25,9,11,17.079999999999988,0.183,68.7470000000005,2.3179999999999983,14,2,18,9,74,2,287,10,5,0,22,5.5,1,L,0.23081081081081078,0.0915,0.23953658536585365,0.23179999999999995
10,8,15,1,7,27.02299999999998,17,130,8,4,1,3,28.852999999999977,1.646999999999999,0.9149999999999996,4.086999999999997,20,7,4,13,136,10,4,26,6,1,72,6,1,L,0.21215441176470587,0.16469999999999999,0.22875,0.1571923076923077
10,8,16,1,15,24.82699999999998,11,112,15,14,74,68,27.08399999999998,1.4029999999999991,4.208999999999997,0.6709999999999998,18,4,11,3,119,5,17,4,6,0,19,4.75,1,L,0.22759663865546217,0.2806,0.24758823529411764,0.16775
10,9,17,1,3,10.552999999999992,17,44,29,15,33,36,10.613999999999992,10.247999999999992,1.0369999999999995,0.244,18,15,4,1,45,38,4,1,5,0.5,36,5.25,1,L,0.23586666666666664,0.26968421052631575,0.25925,0.244
10,9,18,1,7,67.64900000000037,10,287,2,1,66,10,68.56400000000038,11.528999999999991,0.183,0.427,15,17,1,2,292,47,1,2,6,0.5,40,5.5,1,L,0.23480821917808217,0.2452978723404255,0.183,0.2135
10,10,19,1,2,56.851999999999954,13,242,55,58,59,15,59.35299999999995,0.061,1.0979999999999994,2.622999999999998,20,1,5,7,256,1,5,11,4,0.5,30,4.5,1,L,0.23184765624999998,0.061,0.21959999999999996,0.23845454545454542
10,10,20,1,7,64.53800000000001,14,276,9,7,3,73,64.66000000000001,5.7949999999999955,3.3549999999999973,0.183,16,13,11,2,278,25,16,2,6,0.5,39,5.25,1,L,0.23258992805755394,0.23179999999999998,0.2096875,0.0915
10,11,21,1,15,24.27799999999998,17,105,17,21,39,52,24.70499999999998,2.1349999999999985,8.722999999999994,2.1349999999999985,19,6,15,8,107,6,31,9,6,0,21,5.25,1,L,0.23088785046728968,0.3558333333333332,0.2813870967741935,0.23722222222222222
10,11,22,1,14,12.62699999999999,19,71,96,87,93,28,13.17599999999999,2.1349999999999985,0.122,14.456999999999988,20,11,1,17,75,13,1,62,3,0.5,23,3.5,1,L,0.17568,0.16423076923076924,0.122,0.23317741935483868
11,1,1,1,14,50.75199999999996,17,218,88,96,86,40,52.64299999999996,1.0979999999999994,1.0369999999999995,0.8539999999999996,20,6,6,2,225,6,6,3,3,0.5,23,3.5,1,L,0.23396888888888887,0.183,0.17283333333333334,0.2846666666666667
11,1,2,1,1,26.90099999999998,14,111,80,84,75,73,27.388999999999978,0.5489999999999999,1.1589999999999994,1.8909999999999987,16,3,4,8,113,3,4,10,3,1,36,3,1,L,0.2423805309734513,0.183,0.28975,0.1891
11,2,3,1,2,28.913999999999977,12,135,50,21,18,58,31.475999999999974,6.221999999999995,2.1349999999999985,1.9519999999999986,18,15,6,9,142,28,7,9,4,0,20,5,1,L,0.2216619718309859,0.2222142857142857,0.30499999999999994,0.21688888888888888
11,2,4,1,7,27.754999999999978,20,116,11,3,8,9,29.340999999999976,1.4029999999999991,5.550999999999996,3.2329999999999974,20,3,13,9,124,3,27,11,6,1,72,6,1,L,0.23662096774193545,0.46766666666666656,0.20559259259259258,0.29390909090909084
11,3,5,1,14,21.715999999999983,14,100,89,95,88,14,22.386999999999983,3.3549999999999973,1.0979999999999994,3.2329999999999974,15,11,7,8,101,14,9,11,3,0.5,24,3.75,1,L,0.22165346534653463,0.23964285714285713,0.122,0.2939090909090909
11,3,6,1,3,11.528999999999991,18,69,31,35,54,106,12.62699999999999,8.539999999999994,3.537999999999997,8.600999999999994,20,15,11,16,77,45,16,41,5,0,16,4,1,L,0.163987012987013,0.18977777777777777,0.221125,0.209780487804878
11,4,7,1,3,20.861999999999984,18,98,20,16,17,30,35.745999999999974,5.489999999999996,5.245999999999996,2.9889999999999977,20,14,14,12,162,24,27,15,5,0.5,41,5.75,1,L,0.2206543209876543,0.22874999999999998,0.19429629629629627,0.19926666666666665
11,4,8,1,1,17.201999999999988,15,79,77,78,79,61,18.848999999999986,5.611999999999996,8.295999999999994,4.452999999999997,19,14,13,11,83,26,32,20,3,0.5,22,3.25,1,L,0.22709638554216866,0.21584615384615383,0.25925,0.22265
11,5,9,1,2,14.822999999999988,20,85,58,50,52,90,15.432999999999987,3.0499999999999976,3.598999999999997,16.469999999999988,20,8,11,17,89,10,18,71,4,0.5,27,3.75,1,L,0.17340449438202246,0.305,0.1999444444444444,0.23197183098591548
11,5,10,1,1,24.82699999999998,18,119,80,108,31,84,28.669999999999977,19.519999999999985,12.68799999999999,2.1959999999999984,20,19,17,11,135,85,61,12,3,0,13,3.25,1,L,0.21237037037037035,0.2296470588235294,0.208,0.183
11,6,11,1,11,71.12600000000077,14,305,65,36,32,29,73.32200000000077,1.0369999999999995,6.709999999999995,7.014999999999994,20,3,15,15,316,3,30,30,4,0.5,34,4.75,1,L,0.23203164556962022,0.3456666666666666,0.22366666666666662,0.2338333333333333
11,6,12,1,2,13.11499999999999,17,67,38,82,117,111,60.02399999999995,7.441999999999994,0.061,1.524999999999999,20,14,1,8,254,28,1,8,4,0,12,3,1,L,0.23631496062992124,0.26578571428571424,0.061,0.190625
11,7,13,1,11,19.519999999999985,20,99,63,111,62,69,20.129999999999985,9.332999999999993,1.524999999999999,7.9299999999999935,20,18,3,16,103,53,3,32,4,0.5,26,3.5,1,L,0.1954368932038835,0.1760943396226415,0.5083333333333331,0.24781249999999996
11,7,14,1,1,34.098999999999975,16,144,10,2,4,73,50.44699999999996,30.438999999999975,21.105999999999984,0.122,20,18,17,1,207,123,73,1,3,0.5,39,5.25,1,L,0.2437053140096618,0.24747154471544713,0.28912328767123285,0.122
11,8,15,1,15,12.74899999999999,14,62,17,14,20,22,13.05399999999999,3.476999999999997,0.6709999999999998,1.463999999999999,16,11,4,6,64,17,5,6,6,1,72,6,1,L,0.20396874999999998,0.20452941176470588,0.13419999999999999,0.24399999999999994
11,8,16,1,3,33.793999999999976,18,150,35,33,31,3,35.074999999999974,0.7319999999999998,5.428999999999996,15.493999999999987,20,4,11,16,157,4,16,62,5,0.5,36,5.25,1,L,0.2234076433121019,0.183,0.33931249999999996,0.24990322580645158
11,9,17,1,14,31.963999999999974,10,134,93,91,85,94,34.464999999999975,0.6709999999999998,0.9759999999999995,0.183,18,7,2,2,142,9,2,2,3,1,36,3,1,L,0.24271126760563377,0.07455555555555556,0.4879999999999999,0.0915
11,9,18,1,3,29.157999999999976,15,127,35,31,75,82,29.218999999999976,1.524999999999999,4.391999999999997,0.5489999999999999,16,9,12,1,128,10,19,1,5,0,16,4,1,L,0.22827343749999998,0.1525,0.2311578947368421,0.5489999999999999
11,10,19,1,2,25.74199999999998,13,104,51,53,54,52,25.98599999999998,0.305,0.6709999999999998,4.330999999999997,15,4,3,11,106,4,3,18,4,1,48,4,1,L,0.2451509433962264,0.07625,0.22366666666666665,0.24061111111111105
11,10,20,1,14,25.13199999999998,16,108,96,91,89,95,25.49799999999998,0.061,1.0369999999999995,0.061,18,1,6,1,110,1,7,1,3,1,36,3,1,L,0.23179999999999998,0.061,0.14814285714285713,0.061
11,11,21,1,1,75.88400000000132,17,279,79,77,7,65,78.56800000000132,2.744999999999998,2.683999999999998,0.183,20,10,9,2,294,13,15,2,3,0,16,4,1,L,0.2672380952380952,0.21115384615384614,0.17893333333333333,0.0915
11,11,22,1,14,14.883999999999988,17,77,18,86,97,89,92.90300000000155,0.5489999999999999,0.7929999999999997,1.4029999999999991,20,2,6,5,377,2,7,5,3,0,14,3.5,1,L,0.24642705570291776,0.27449999999999997,0.11328571428571428,0.2806
12,1,1,1,7,18.726999999999986,16,95,3,2,10,8,18.970999999999986,5.245999999999996,0.8539999999999996,0.061,17,13,6,1,96,25,6,1,6,1,72,6,1,L,0.19761458333333332,0.20983999999999997,0.14233333333333334,0.061
12,1,2,1,13,28.242999999999977,14,114,117,114,31,110,28.852999999999977,1.8909999999999987,2.0739999999999985,4.269999999999997,19,8,6,14,119,11,7,27,2,0.5,17,2.75,1,L,0.24246218487394955,0.1719090909090909,0.29628571428571426,0.15814814814814815
12,2,3,1,2,17.201999999999988,14,68,51,49,54,53,18.299999999999986,0.122,0.122,2.3179999999999983,16,1,1,11,70,2,1,11,4,1,48,4,1,L,0.2614285714285714,0.061,0.122,0.2107272727272727
12,2,4,1,11,8.112999999999994,11,43,72,64,14,66,10.308999999999992,2.2569999999999983,11.101999999999991,1.0369999999999995,19,8,14,3,53,12,31,3,4,0.5,30,4.5,1,L,0.19450943396226414,0.18808333333333332,0.3581290322580644,0.34566666666666657
12,3,5,1,7,17.933999999999987,17,86,8,72,61,31,17.994999999999987,3.0499999999999976,9.210999999999993,1.7079999999999989,18,7,12,6,87,8,40,6,6,0,19,4.75,1,L,0.2068390804597701,0.3812499999999999,0.23027499999999998,0.28466666666666657
12,3,6,1,8,18.970999999999986,16,90,97,18,106,107,22.752999999999982,17.994999999999987,1.1589999999999994,0.305,20,18,5,2,107,70,6,2,2,0.5,18,3,1,L,0.2126448598130841,0.25707142857142856,0.19316666666666665,0.1525
12,4,7,1,3,22.569999999999983,15,100,25,53,18,60,26.47399999999998,0.7929999999999997,5.855999999999995,8.600999999999994,20,3,16,15,119,3,25,35,5,0,19,4.75,1,L,0.2224705882352941,0.26433333333333325,0.23424,0.2457428571428571
12,4,8,1,7,33.610999999999976,16,134,6,1,41,72,34.464999999999975,5.489999999999996,4.818999999999996,2.3179999999999983,20,13,13,10,138,21,22,13,6,0,21,5.25,1,L,0.24974637681159417,0.2614285714285714,0.21904545454545452,0.1783076923076923
12,5,9,1,1,44.773999999999965,18,212,76,84,67,78,45.017999999999965,1.2199999999999993,3.4159999999999973,3.1109999999999975,20,8,11,11,214,8,16,14,3,0.5,22,3.25,1,L,0.21036448598130839,0.1525,0.2135,0.2222142857142857
12,5,10,1,2,37.57599999999997,20,156,53,27,52,5,38.06399999999997,2.622999999999998,2.8669999999999978,0.8539999999999996,20,8,7,6,160,12,8,7,4,0,19,4.75,1,L,0.23789999999999997,0.2185833333333333,0.35837499999999994,0.122
12,6,11,1,11,24.76599999999998,14,102,67,66,6,65,27.510999999999978,3.842999999999997,0.183,1.585999999999999,20,15,1,5,109,19,1,6,4,0.5,30,4.5,1,L,0.252394495412844,0.20226315789473684,0.183,0.2643333333333333
12,6,12,1,15,14.029999999999989,16,83,18,13,15,16,14.090999999999989,1.463999999999999,10.308999999999992,0.427,17,8,13,3,84,8,40,4,6,1,72,6,1,L,0.16775,0.183,0.257725,0.10675
12,7,13,1,2,28.913999999999977,20,136,58,54,53,36,30.011999999999976,0.7929999999999997,1.8299999999999987,2.9889999999999977,20,4,6,8,141,4,7,14,4,0.5,29,4.25,1,L,0.21285106382978722,0.19824999999999998,0.2614285714285714,0.2135
12,7,14,1,14,67.9540000000004,13,261,16,67,88,20,91.13400000000038,0.366,3.598999999999997,0.061,20,2,11,1,372,2,18,1,3,0,19,4.75,1,L,0.2449838709677419,0.183,0.19994444444444442,0.061
12,8,15,1,15,33.000999999999976,14,144,16,14,17,19,35.501999999999974,3.9649999999999967,0.061,0.366,20,11,1,2,155,17,1,2,6,1,72,6,1,L,0.22904516129032257,0.23323529411764704,0.061,0.183
12,8,16,1,12,19.397999999999985,19,107,42,5,1,45,19.458999999999985,3.3549999999999973,7.441999999999994,0.122,20,9,16,1,108,14,39,1,5,0,22,5.5,1,L,0.18017592592592593,0.23964285714285713,0.19082051282051282,0.122
12,9,17,1,13,60.93899999999995,12,258,110,112,113,115,63.43999999999995,0.122,1.0369999999999995,1.463999999999999,20,2,5,8,267,2,7,9,2,1,24,2,1,L,0.23760299625468162,0.061,0.14814285714285713,0.16266666666666665
12,9,18,1,1,16.774999999999988,18,87,1,74,2,47,42.39499999999997,0.6099999999999999,1.0979999999999994,0.9149999999999996,20,4,8,3,183,4,9,3,3,0,20,5,1,L,0.23166666666666666,0.1525,0.122,0.305
12,10,19,1,1,16.22599999999999,18,89,3,4,79,10,64.47699999999995,0.427,0.061,1.2199999999999993,20,3,1,7,295,3,1,8,3,0.5,39,5.25,1,L,0.21856610169491525,0.14233333333333334,0.061,0.1525
12,10,20,1,15,17.750999999999987,20,89,13,22,21,17,17.811999999999987,0.366,0.5489999999999999,2.1349999999999985,20,2,2,6,90,2,3,7,6,1,72,6,1,L,0.1979111111111111,0.183,0.183,0.30499999999999994
12,11,21,1,3,17.994999999999987,19,88,32,27,29,93,20.373999999999985,1.524999999999999,1.9519999999999986,11.406999999999991,20,6,5,17,100,6,7,51,5,0.5,33,4.5,1,L,0.20373999999999998,0.25416666666666665,0.27885714285714286,0.22366666666666665
12,11,22,1,1,24.70499999999998,18,119,76,80,67,71,24.76599999999998,1.8909999999999987,1.0369999999999995,15.066999999999988,19,6,3,16,120,8,4,70,3,0,14,3.5,1,L,0.2063833333333333,0.23637499999999997,0.25925,0.21524285714285712
13,1,1,1,13,21.410999999999984,20,89,118,113,117,41,21.898999999999983,5.245999999999996,0.122,7.014999999999994,20,14,1,15,91,23,1,34,2,0.5,17,2.75,1,L,0.24064835164835163,0.22808695652173913,0.122,0.2063235294117647
13,1,2,1,2,50.99599999999996,11,213,56,59,96,103,51.05699999999996,3.2329999999999974,2.683999999999998,0.7319999999999998,12,8,8,1,214,13,14,1,4,0,13,3.25,1,L,0.23858411214953268,0.24869230769230768,0.1917142857142857,0.7319999999999998
13,2,3,1,13,18.787999999999986,20,88,110,73,23,18,18.970999999999986,13.48099999999999,6.770999999999995,0.9149999999999996,20,17,17,1,89,56,35,1,2,0,17,4.25,1,L,0.2131573033707865,0.24073214285714284,0.19345714285714286,0.9149999999999996
13,2,4,1,3,57.64499999999995,15,237,27,34,8,25,57.88899999999995,0.8539999999999996,3.720999999999997,0.061,17,5,16,1,239,5,23,1,5,0.5,36,5.25,1,L,0.24221338912133888,0.1708,0.16178260869565217,0.061
13,3,5,1,7,26.16899999999998,16,118,7,34,25,10,26.22999999999998,4.635999999999997,6.648999999999995,2.561999999999998,17,12,12,6,119,18,25,8,6,0,22,5.5,1,L,0.22042016806722686,0.2575555555555555,0.26596,0.32025
13,3,6,1,2,43.30999999999997,17,215,52,20,60,58,43.61499999999997,1.463999999999999,1.585999999999999,1.2809999999999993,18,6,7,6,216,6,10,7,4,0.5,30,4.5,1,L,0.2019212962962963,0.24399999999999994,0.1586,0.183
13,4,7,1,7,16.957999999999988,17,84,4,9,11,42,17.018999999999988,4.086999999999997,4.574999999999997,6.8319999999999945,18,10,12,16,85,15,16,37,6,0.5,41,5.75,1,L,0.2002235294117647,0.27246666666666663,0.28593749999999996,0.18464864864864863
13,4,8,1,2,20.434999999999985,20,85,54,57,23,28,21.349999999999984,0.122,19.824999999999985,0.7319999999999998,20,1,15,5,91,1,71,5,4,0,19,4.75,1,L,0.2346153846153846,0.122,0.279225352112676,0.1464
13,5,9,1,12,19.458999999999985,20,84,45,44,40,23,19.946999999999985,2.622999999999998,5.245999999999996,4.391999999999997,20,9,15,12,85,13,31,23,5,0.5,36,5.25,1,L,0.2346705882352941,0.20176923076923076,0.1692258064516129,0.19095652173913044
13,5,10,1,7,26.04699999999998,19,118,7,81,9,10,26.10799999999998,6.038999999999995,0.061,1.3419999999999992,20,13,1,5,119,29,1,6,6,0.5,39,5.25,1,L,0.21939495798319325,0.2082413793103448,0.061,0.22366666666666665
13,6,11,1,15,31.719999999999974,20,158,16,14,18,21,32.75699999999998,3.476999999999997,2.9889999999999977,3.598999999999997,20,10,10,9,163,15,16,13,6,1,72,6,1,L,0.20096319018404907,0.2318,0.1868125,0.2768461538461538
13,6,12,1,1,16.530999999999988,20,91,74,67,8,83,17.018999999999988,13.23699999999999,0.305,0.183,20,17,1,2,93,58,1,2,3,0,16,4,1,L,0.183,0.22822413793103447,0.305,0.0915
13,7,13,1,2,43.980999999999966,20,183,56,9,59,55,44.102999999999966,2.2569999999999983,1.646999999999999,0.5489999999999999,20,9,7,5,184,13,10,5,4,0.5,30,4.5,1,L,0.2396902173913043,0.17361538461538462,0.16469999999999999,0.1098
13,7,14,1,14,25.13199999999998,17,116,13,93,85,91,30.926999999999975,0.183,0.061,0.183,20,2,1,1,134,2,1,1,3,0.5,24,3.75,1,L,0.23079850746268654,0.0915,0.061,0.183
13,8,15,1,12,23.60699999999998,19,102,40,42,47,89,26.53499999999998,15.676999999999987,8.234999999999994,3.903999999999997,20,17,17,13,120,56,36,17,5,0.5,33,4.5,1,L,0.221125,0.27994642857142854,0.22874999999999995,0.2296470588235294
13,8,16,1,7,45.139999999999965,19,197,2,30,84,75,45.200999999999965,2.0739999999999985,2.500999999999998,0.183,20,6,8,1,198,8,10,1,6,0,17,4.25,1,L,0.22828787878787876,0.25925,0.2501,0.183
13,9,17,1,1,27.998999999999977,19,129,74,84,101,76,28.303999999999977,2.683999999999998,2.439999999999998,0.183,20,8,5,2,132,11,6,2,3,0.5,20,2.75,1,L,0.2144242424242424,0.24399999999999997,0.40666666666666657,0.0915
13,9,18,1,2,14.761999999999988,18,88,52,59,95,116,17.323999999999987,0.183,10.796999999999992,9.088999999999993,20,1,17,15,98,1,46,47,4,0,13,3.25,1,L,0.17677551020408164,0.183,0.2347173913043478,0.19338297872340424
13,10,19,1,7,24.52199999999998,20,126,4,5,9,6,25.00999999999998,2.3179999999999983,0.7319999999999998,3.659999999999997,20,8,5,11,128,8,5,19,6,1,72,6,1,L,0.19539062499999998,0.28974999999999995,0.1464,0.1926315789473684
13,10,20,1,13,15.737999999999987,20,74,114,115,113,48,16.469999999999988,1.3419999999999992,1.8909999999999987,5.245999999999996,20,7,7,12,80,8,8,25,2,0.5,17,2.75,1,L,0.20587499999999997,0.16775,0.23637499999999995,0.20983999999999997
13,11,21,1,12,19.641999999999985,20,93,96,90,114,48,25.37599999999998,4.147999999999997,0.9759999999999995,0.5489999999999999,20,11,5,6,118,17,7,6,5,0,13,3.25,1,L,0.2150508474576271,0.244,0.13942857142857143,0.0915
13,11,22,1,8,22.813999999999982,17,107,29,65,105,84,29.279999999999976,12.99299999999999,3.9649999999999967,4.452999999999997,20,14,11,12,142,47,18,21,2,0,14,3.5,1,L,0.20619718309859153,0.27644680851063824,0.22027777777777777,0.212047619047619
13,12,23,1,14,59.10899999999995,16,231,57,98,38,90,59.65799999999995,3.781999999999997,0.366,0.6709999999999998,18,13,3,2,233,18,3,2,3,0,14,3.5,1,L,0.2560429184549356,0.2101111111111111,0.122,0.33549999999999996
13,12,24,1,15,10.735999999999992,15,48,13,33,34,31,10.796999999999992,3.1109999999999975,2.3789999999999982,1.1589999999999994,16,9,6,4,49,15,12,4,6,0.5,36,5.25,1,L,0.2203469387755102,0.20739999999999997,0.19824999999999998,0.28974999999999995
14,1,1,1,1,26.90099999999998,19,115,74,73,58,80,27.327999999999978,0.9759999999999995,1.1589999999999994,0.366,20,3,5,3,118,3,6,3,3,0.5,22,3.25,1,L,0.23159322033898302,0.3253333333333333,0.19316666666666663,0.122
14,1,2,1,14,38.06399999999997,19,177,86,88,96,10,44.956999999999965,0.061,0.5489999999999999,1.463999999999999,20,1,2,4,194,1,3,4,3,0.5,24,3.75,1,L,0.23173711340206182,0.061,0.183,0.3659999999999998
14,2,3,1,11,20.800999999999984,16,101,68,63,45,4,23.240999999999982,4.391999999999997,2.8669999999999978,11.284999999999991,20,13,10,16,108,20,13,42,4,0,19,4.75,1,L,0.21519444444444444,0.2196,0.22053846153846152,0.26869047619047615
14,2,4,1,15,85.40000000000242,15,386,19,18,20,21,92.59800000000241,19.580999999999985,0.488,0.6709999999999998,20,18,3,6,414,92,3,6,6,1,72,6,1,L,0.22366666666666665,0.2128369565217391,0.16266666666666665,0.11183333333333333
14,3,5,1,13,22.081999999999983,19,113,111,110,52,75,23.362999999999982,0.366,4.818999999999996,0.7929999999999997,20,3,6,3,122,3,12,3,2,0,11,2.75,1,L,0.19149999999999998,0.122,0.40158333333333324,0.2643333333333333
14,3,6,1,11,12.13899999999999,19,58,67,72,96,90,18.543999999999986,3.781999999999997,17.018999999999988,0.7319999999999998,20,12,18,2,81,17,81,3,4,0,14,3.5,1,L,0.22893827160493824,0.2224705882352941,0.21011111111111108,0.244
14,4,7,1,3,12.13899999999999,16,63,30,11,3,4,12.38299999999999,20.556999999999984,2.439999999999998,25.43699999999998,17,17,9,15,64,91,13,95,5,0.5,41,5.75,1,L,0.193484375,0.22590109890109888,0.18769230769230769,0.2677578947368421
14,4,8,1,15,14.944999999999988,19,74,15,13,24,22,18.116999999999987,1.7079999999999989,0.6099999999999999,0.061,20,3,3,1,90,4,3,1,6,1,72,6,1,L,0.20129999999999998,0.4269999999999999,0.20333333333333334,0.061
14,5,9,1,2,32.75699999999998,16,152,119,13,58,56,56.11999999999996,18.238999999999987,0.183,2.1349999999999985,20,18,1,8,254,71,1,9,4,0,16,4,1,L,0.22094488188976374,0.2568873239436619,0.183,0.23722222222222222
14,5,10,1,12,70.08900000000065,18,302,44,41,81,3,75.51800000000065,0.7929999999999997,0.183,0.7319999999999998,20,2,1,1,330,2,1,1,5,0,19,4.75,1,L,0.2288424242424242,0.3964999999999999,0.183,0.7319999999999998
14,6,11,1,15,18.543999999999986,19,91,24,17,117,14,19.153999999999986,2.500999999999998,0.6709999999999998,1.2809999999999993,20,11,2,6,94,17,2,6,6,0.5,38,5,1,L,0.2037659574468085,0.14711764705882352,0.3355,0.2135
14,6,12,1,8,32.81799999999998,17,150,99,101,108,105,32.939999999999976,1.3419999999999992,0.7319999999999998,0.061,18,5,3,1,151,5,4,1,2,1,24,2,1,L,0.2181456953642384,0.26839999999999997,0.183,0.061
14,7,13,1,7,20.007999999999985,19,81,3,7,11,82,20.068999999999985,14.090999999999989,0.427,0.427,20,18,4,3,82,62,4,3,6,0.5,39,5.25,1,L,0.24474390243902436,0.22727419354838707,0.10675,0.14233333333333334
14,7,14,1,11,34.525999999999975,15,154,69,20,97,13,37.45399999999997,8.112999999999994,7.197999999999994,0.9149999999999996,20,15,14,5,178,40,32,5,4,0,18,4.5,1,L,0.21041573033707864,0.202825,0.22493749999999998,0.183
14,8,15,1,2,73.26100000000102,16,304,57,43,50,24,73.44400000000103,0.366,1.8909999999999987,4.269999999999997,18,2,9,14,306,2,10,21,4,0,19,4.75,1,L,0.2400130718954248,0.183,0.1891,0.20333333333333328
14,8,16,1,7,29.828999999999976,20,153,1,10,5,81,29.950999999999976,0.5489999999999999,7.380999999999994,2.439999999999998,20,3,14,4,154,3,30,7,6,0.5,39,5.25,1,L,0.19448701298701299,0.183,0.24603333333333333,0.3485714285714285
14,9,17,1,2,20.434999999999985,20,76,10,5,52,47,66.06299999999995,0.7319999999999998,0.061,1.463999999999999,20,1,1,6,265,1,1,7,4,0,21,5.25,1,L,0.24929433962264147,0.7319999999999998,0.061,0.20914285714285713
14,9,18,1,3,14.151999999999989,15,64,100,104,13,76,33.427999999999976,15.859999999999987,25.19299999999998,0.061,20,18,18,1,136,74,83,1,5,0,13,3.25,1,L,0.2457941176470588,0.2143243243243243,0.3035301204819277,0.061
14,10,19,1,12,17.079999999999988,19,98,47,107,3,76,17.201999999999988,9.210999999999993,3.537999999999997,0.6099999999999999,20,17,11,1,99,49,13,1,5,0,16,4,1,L,0.17375757575757575,0.18797959183673468,0.27215384615384614,0.6099999999999999
14,10,20,1,3,14.578999999999988,19,69,33,30,31,27,15.676999999999987,0.061,1.524999999999999,1.7079999999999989,20,1,10,9,75,1,12,12,5,1,60,5,1,L,0.20902666666666664,0.061,0.12708333333333333,0.14233333333333334
14,11,21,1,11,19.031999999999986,16,78,8,67,65,61,21.715999999999983,0.7929999999999997,0.9149999999999996,3.2939999999999974,20,4,5,11,91,4,5,14,4,0.5,30,4.5,1,L,0.2386373626373626,0.19824999999999998,0.183,0.23528571428571426
14,11,22,1,15,20.373999999999985,19,104,17,43,99,50,20.434999999999985,8.600999999999994,2.3789999999999982,4.452999999999997,20,13,10,12,105,32,13,16,6,0,17,4.25,1,L,0.1946190476190476,0.26878124999999997,0.183,0.27831249999999996
15,1,1,1,1,24.94899999999998,15,107,75,74,79,37,25.19299999999998,0.6709999999999998,3.720999999999997,1.0369999999999995,18,6,10,3,110,6,16,4,3,0.5,23,3.5,1,L,0.2290272727272727,0.11183333333333333,0.23256249999999998,0.25925
15,1,2,1,14,43.00499999999997,16,191,89,86,60,16,43.797999999999966,0.488,9.271999999999993,0.488,20,2,16,2,195,2,41,2,3,0,16,4,1,L,0.22460512820512818,0.244,0.2261463414634146,0.244
15,2,3,1,3,20.495999999999984,20,98,31,26,34,32,21.593999999999983,0.8539999999999996,1.8299999999999987,1.7689999999999988,20,4,9,5,102,4,16,7,5,1,60,5,1,L,0.21170588235294116,0.2135,0.114375,0.2527142857142857
15,2,4,1,12,45.627999999999965,14,198,47,43,45,88,48.31199999999996,0.061,0.427,11.528999999999991,20,1,3,17,211,1,3,54,5,0.5,33,4.5,1,L,0.22896682464454973,0.061,0.14233333333333334,0.21349999999999997
15,3,5,1,15,23.78999999999998,16,126,14,24,21,67,23.85099999999998,0.7319999999999998,8.478999999999994,8.600999999999994,17,3,14,16,127,3,31,35,6,0.5,40,5.5,1,L,0.1878031496062992,0.24399999999999997,0.273516129032258,0.24574285714285712
15,3,6,1,1,45.993999999999964,14,211,83,82,26,80,48.37299999999996,0.488,0.9759999999999995,0.427,20,4,4,4,221,4,5,4,3,0.5,23,3.5,1,L,0.21888235294117644,0.122,0.19519999999999998,0.10675
15,4,7,1,14,30.499999999999975,12,127,94,88,18,17,31.231999999999974,1.8299999999999987,11.650999999999991,16.469999999999988,17,6,18,17,132,6,50,78,3,0,18,4.5,1,L,0.23660606060606057,0.305,0.23301999999999998,0.21115384615384614
15,4,8,1,11,24.52199999999998,17,110,68,61,70,6,24.58299999999998,2.2569999999999983,0.9149999999999996,3.598999999999997,18,7,4,13,111,8,4,20,4,0.5,30,4.5,1,L,0.22146846846846846,0.28212499999999996,0.22875,0.17995
15,5,9,1,12,29.584999999999976,20,150,46,3,39,7,30.987999999999975,6.465999999999995,0.6099999999999999,1.8299999999999987,20,16,3,6,164,24,4,6,5,0,22,5.5,1,L,0.18895121951219512,0.26941666666666664,0.1525,0.30499999999999994
15,5,10,1,14,15.676999999999987,19,76,23,93,94,90,31.475999999999974,0.061,1.4029999999999991,1.585999999999999,20,1,9,8,148,1,12,8,3,0.5,24,3.75,1,L,0.21267567567567566,0.061,0.11691666666666667,0.19824999999999998
15,6,11,1,12,63.62299999999995,16,242,46,43,19,18,65.26999999999995,4.330999999999997,1.2809999999999993,5.367999999999996,20,12,4,12,250,18,4,23,5,0,22,5.5,1,L,0.26108,0.24061111111111108,0.32025,0.23339130434782607
15,6,12,1,2,93.75700000000339,17,386,7,89,58,57,94.97700000000339,0.427,2.2569999999999983,1.646999999999999,20,1,8,5,395,1,11,9,4,0,17,4.25,1,L,0.24044810126582275,0.427,0.20518181818181816,0.183
15,7,13,1,12,29.645999999999976,14,125,44,38,24,47,30.499999999999975,0.488,4.330999999999997,1.0979999999999994,18,3,14,6,130,3,19,6,5,0.5,36,5.25,1,L,0.2346153846153846,0.16266666666666665,0.22794736842105262,0.183
15,7,14,1,11,24.21699999999998,16,107,62,4,61,70,27.510999999999978,1.1589999999999994,0.305,0.122,20,3,3,1,119,3,3,1,4,0.5,30,4.5,1,L,0.2311848739495798,0.3863333333333333,0.10166666666666667,0.122
15,8,15,1,14,29.279999999999976,20,122,89,2,92,96,30.865999999999975,2.683999999999998,0.9149999999999996,0.122,20,7,3,1,129,11,3,1,3,0.5,24,3.75,1,L,0.23927131782945735,0.24399999999999997,0.305,0.122
15,8,16,1,1,36.35599999999997,20,140,80,76,81,18,36.53899999999997,3.4159999999999973,3.1109999999999975,0.305,20,9,10,3,141,12,17,3,3,0.5,24,3.75,1,L,0.25914184397163115,0.2846666666666666,0.183,0.10166666666666667
15,9,17,1,7,32.39099999999998,18,146,1,12,111,38,32.45199999999998,3.9649999999999967,10.247999999999992,1.2809999999999993,19,10,14,7,147,16,42,7,6,0,19,4.75,1,L,0.22076190476190474,0.2478125,0.24399999999999997,0.183
15,9,18,1,3,21.227999999999984,20,98,33,27,34,16,21.471999999999984,0.7929999999999997,1.0979999999999994,1.646999999999999,20,4,4,5,100,4,5,5,5,0.5,36,5.25,1,L,0.21471999999999997,0.19824999999999998,0.2196,0.3293999999999999
15,10,19,1,8,19.946999999999985,16,97,107,106,108,101,21.776999999999983,0.366,2.3179999999999983,0.366,20,1,10,3,106,1,14,3,2,1,24,2,1,L,0.20544339622641508,0.366,0.16557142857142856,0.122
15,10,20,1,13,29.523999999999976,19,126,115,119,116,59,30.133999999999975,4.330999999999997,13.17599999999999,1.8909999999999987,20,8,15,8,129,12,50,8,2,0.5,16,2.5,1,L,0.2335968992248062,0.36091666666666655,0.26352,0.236375
15,11,21,1,1,19.824999999999985,18,96,78,77,84,81,20.800999999999984,0.366,1.8909999999999987,4.391999999999997,20,2,6,14,101,3,6,22,3,1,36,3,1,L,0.20595049504950494,0.122,0.3151666666666666,0.1996363636363636
15,11,22,1,15,15.493999999999987,18,72,13,22,20,71,16.04299999999999,0.366,4.7579999999999965,1.7689999999999988,20,2,11,8,74,2,21,9,6,0.5,40,5.5,1,L,0.21679729729729727,0.183,0.22657142857142853,0.19655555555555554
16,1,1,1,13,24.33899999999998,20,103,110,115,113,14,24.58299999999998,2.0739999999999985,2.9279999999999977,4.391999999999997,20,6,10,13,105,8,13,22,2,0.5,18,3,1,L,0.2341238095238095,0.25925,0.22523076923076918,0.1996363636363636
16,1,2,1,8,20.922999999999984,18,103,106,102,77,1,21.288999999999984,5.306999999999996,21.776999999999983,8.966999999999993,20,14,18,15,105,22,91,35,2,0,13,3.25,1,L,0.20275238095238093,0.2412272727272727,0.23930769230769228,0.25619999999999993
16,2,3,1,14,24.94899999999998,16,116,89,87,91,85,26.22999999999998,0.366,2.561999999999998,2.500999999999998,20,2,7,11,124,2,7,13,3,1,36,3,1,L,0.2115322580645161,0.183,0.3659999999999999,0.19238461538461538
16,2,4,1,3,62.82999999999995,15,279,30,34,26,77,64.41599999999995,1.0979999999999994,0.183,1.3419999999999992,20,6,2,5,286,7,2,9,5,0.5,33,4.5,1,L,0.2252307692307692,0.15685714285714286,0.0915,0.1491111111111111
16,3,5,1,15,25.00999999999998,18,120,13,14,100,22,25.68099999999998,1.2199999999999993,3.4159999999999973,0.122,20,5,7,1,122,8,11,1,6,0.5,38,5,1,L,0.2105,0.1525,0.3105454545454545,0.122
16,3,6,1,1,16.774999999999988,18,80,2,53,84,45,43.06599999999997,1.7079999999999989,2.3179999999999983,1.3419999999999992,20,10,5,6,187,10,7,6,3,0,18,4.5,1,L,0.23029946524064168,0.17079999999999998,0.33114285714285707,0.22366666666666665
16,4,7,1,15,20.800999999999984,15,86,13,74,19,20,20.861999999999984,2.0739999999999985,4.6969999999999965,5.184999999999996,16,7,14,13,87,10,28,20,6,0.5,39,5.25,1,L,0.23979310344827584,0.20739999999999997,0.16774999999999998,0.25925
16,4,8,1,7,33.244999999999976,17,162,9,5,61,2,33.793999999999976,4.330999999999997,12.26099999999999,1.7689999999999988,20,10,17,9,165,15,44,11,6,0.5,40,5.5,1,L,0.2048121212121212,0.2887333333333333,0.27865909090909086,0.1608181818181818
16,5,9,1,15,17.445999999999987,18,79,13,19,78,49,17.628999999999987,1.2809999999999993,3.2329999999999974,3.4159999999999973,19,5,8,9,80,5,13,17,6,0,19,4.75,1,L,0.2203625,0.2562,0.24869230769230766,0.20094117647058823
16,5,10,1,11,23.42399999999998,15,104,2,4,66,70,38.67399999999997,19.336999999999986,0.061,0.366,20,18,1,4,161,69,1,4,4,0,20,5,1,L,0.24021118012422357,0.28024637681159414,0.061,0.0915
16,6,11,1,8,15.920999999999987,19,66,107,105,5,52,16.774999999999988,0.061,12.50499999999999,0.6709999999999998,20,1,17,3,74,1,59,4,2,0,14,3.5,1,L,0.22668918918918918,0.061,0.21194915254237284,0.16775
16,6,12,1,12,26.29099999999998,18,120,24,46,40,37,29.523999999999976,0.6099999999999999,0.366,1.9519999999999986,20,5,2,12,136,5,2,16,5,0.5,36,5.25,1,L,0.21708823529411764,0.122,0.183,0.122
16,7,13,1,12,17.750999999999987,18,80,40,45,44,73,23.240999999999982,0.6709999999999998,0.061,22.508999999999983,20,4,1,17,101,4,1,93,5,0.5,33,4.5,1,L,0.2301089108910891,0.16775,0.061,0.2420322580645161
16,7,14,1,14,26.59599999999998,15,116,91,86,95,94,26.65699999999998,1.585999999999999,3.2939999999999974,0.061,16,5,9,1,117,6,11,1,3,1,36,3,1,L,0.22783760683760682,0.2643333333333333,0.29945454545454536,0.061
16,8,15,1,7,16.530999999999988,15,78,6,1,2,11,18.543999999999986,0.427,1.3419999999999992,0.122,19,3,4,1,83,3,4,1,6,1,72,6,1,L,0.22342168674698792,0.14233333333333334,0.3355,0.122
16,8,16,1,15,13.35899999999999,20,61,13,14,54,50,14.456999999999988,2.683999999999998,2.8669999999999978,10.857999999999992,20,9,9,14,65,12,15,47,6,0,20,5,1,L,0.2224153846153846,0.22366666666666662,0.19113333333333332,0.23102127659574467
16,9,17,1,12,53.86299999999996,14,240,38,39,110,116,53.98499999999996,16.28699999999999,4.940999999999996,2.0129999999999986,16,18,13,5,242,74,26,7,5,0,14,3.5,1,L,0.22307851239669418,0.22009459459459457,0.19003846153846154,0.28757142857142853
16,9,18,1,11,23.240999999999982,15,100,62,67,70,22,24.58299999999998,0.122,2.622999999999998,0.366,20,1,9,1,108,1,11,1,4,0.5,30,4.5,1,L,0.22762037037037033,0.122,0.23845454545454545,0.366
16,10,19,1,15,18.238999999999987,18,101,14,17,16,22,18.543999999999986,0.9759999999999995,4.940999999999996,1.7079999999999989,20,3,13,9,103,3,19,9,6,1,72,6,1,L,0.1800388349514563,0.3253333333333332,0.2600526315789473,0.18977777777777777
16,10,20,1,7,9.149999999999993,10,48,3,2,5,12,9.881999999999993,0.183,0.6709999999999998,6.160999999999995,12,2,2,16,51,2,2,36,6,1,72,6,1,L,0.19376470588235292,0.0915,0.33549999999999996,0.1711388888888889
16,11,21,1,13,58.74299999999995,18,251,113,117,109,77,59.47499999999995,0.6099999999999999,0.7319999999999998,1.4029999999999991,20,4,4,4,254,4,5,5,2,0.5,15,2.25,1,L,0.23415354330708657,0.1525,0.1464,0.28059999999999996
16,11,22,1,7,13.48099999999999,14,67,8,86,57,12,13.54199999999999,6.038999999999995,7.9299999999999935,8.783999999999994,15,15,15,15,68,21,33,36,6,0,19,4.75,1,L,0.1991470588235294,0.2875714285714285,0.24030303030303027,0.24399999999999997
16,12,23,1,11,36.23399999999997,15,158,65,66,62,68,37.69799999999997,0.122,0.305,0.061,20,1,2,1,164,1,2,1,4,1,48,4,1,L,0.22986585365853657,0.122,0.1525,0.061
16,12,24,1,7,31.780999999999974,20,130,8,100,4,2,32.51299999999998,1.585999999999999,2.3789999999999982,4.452999999999997,20,5,8,11,134,7,10,19,6,0.5,38,5,1,L,0.24263432835820892,0.2265714285714285,0.23789999999999994,0.23436842105263156
17,1,1,1,8,52.82599999999996,13,196,102,104,97,105,53.49699999999996,1.7689999999999988,1.8299999999999987,0.5489999999999999,16,8,3,2,199,10,4,2,2,1,24,2,1,L,0.2688291457286432,0.1769,0.4574999999999999,0.27449999999999997
17,1,2,1,14,44.895999999999965,14,172,86,87,62,4,46.542999999999964,0.061,5.916999999999995,3.3549999999999973,20,1,17,9,183,1,28,13,3,0,16,4,1,L,0.2543333333333333,0.061,0.21132142857142855,0.25807692307692304
17,2,3,1,12,18.238999999999987,19,100,48,46,44,77,18.726999999999986,5.367999999999996,5.123999999999996,0.9759999999999995,20,12,12,5,103,25,24,5,5,0.5,33,4.5,1,L,0.1818155339805825,0.21472,0.2135,0.19519999999999998
17,2,4,1,8,28.913999999999977,18,132,98,108,102,100,28.974999999999977,0.061,0.122,2.0129999999999986,19,1,1,8,133,1,2,9,2,1,24,2,1,L,0.21785714285714283,0.061,0.061,0.22366666666666665
17,3,5,1,8,30.377999999999975,15,130,108,4,9,11,37.33199999999997,1.7689999999999988,2.3179999999999983,0.061,20,8,5,1,166,8,6,1,2,0.5,38,5,1,L,0.2248915662650602,0.221125,0.38633333333333325,0.061
17,3,6,1,15,20.251999999999985,13,104,14,62,24,22,20.312999999999985,1.4029999999999991,3.3549999999999973,3.3549999999999973,14,2,7,6,105,3,12,7,6,0.5,40,5.5,1,L,0.19345714285714286,0.4676666666666665,0.2795833333333333,0.47928571428571415
17,4,7,1,2,18.848999999999986,14,88,56,55,57,60,20.373999999999985,0.9759999999999995,0.9759999999999995,2.9889999999999977,19,3,3,7,94,4,4,8,4,1,48,4,1,L,0.2167446808510638,0.244,0.24399999999999997,0.37362499999999993
17,4,8,1,3,29.340999999999976,17,149,34,16,71,36,29.523999999999976,16.713999999999988,2.0129999999999986,0.061,18,19,9,1,150,83,11,1,5,0,20,5,1,L,0.19682666666666665,0.2013734939759036,0.18299999999999997,0.061
17,5,9,1,15,16.16499999999999,18,74,15,24,18,19,17.201999999999988,1.1589999999999994,2.439999999999998,1.585999999999999,20,8,6,5,80,9,6,6,6,1,72,6,1,L,0.21502499999999997,0.12877777777777777,0.40666666666666657,0.2643333333333333
17,5,10,1,12,17.201999999999988,20,82,47,44,43,45,18.787999999999986,0.8539999999999996,3.4159999999999973,0.061,20,3,9,1,88,4,14,1,5,1,60,5,1,L,0.21349999999999997,0.2135,0.244,0.061
17,6,11,1,13,14.212999999999989,13,64,113,117,120,9,15.859999999999987,1.2809999999999993,0.061,0.8539999999999996,20,3,1,4,74,3,1,5,2,0.5,18,3,1,L,0.2143243243243243,0.42699999999999994,0.061,0.1708
17,6,12,1,15,18.055999999999987,19,96,21,43,90,23,18.116999999999987,8.295999999999994,4.879999999999996,8.234999999999994,20,17,14,13,97,37,25,27,6,0,20,5,1,L,0.18677319587628866,0.22421621621621618,0.19519999999999998,0.30499999999999994
17,7,13,1,3,46.420999999999964,19,200,36,33,28,15,46.725999999999964,1.3419999999999992,0.061,5.916999999999995,20,6,1,12,202,6,1,25,5,0.5,36,5.25,1,L,0.2313168316831683,0.22366666666666665,0.061,0.23667999999999997
17,7,14,1,2,33.000999999999976,16,141,50,59,52,56,33.610999999999976,6.526999999999995,1.4029999999999991,0.061,19,16,5,1,144,30,6,1,4,1,48,4,1,L,0.2334097222222222,0.21756666666666666,0.23383333333333334,0.061
17,8,15,1,11,31.719999999999974,17,149,15,19,67,90,71.91899999999994,0.061,0.061,0.488,20,1,1,3,300,1,1,3,4,0,19,4.75,1,L,0.23972999999999997,0.061,0.061,0.16266666666666665
17,8,16,1,1,48.12899999999996,15,232,78,81,75,39,48.37299999999996,2.805999999999998,2.561999999999998,2.439999999999998,16,10,10,9,233,12,11,10,3,0.5,23,3.5,1,L,0.20760944206008583,0.2338333333333333,0.2329090909090909,0.244
17,9,17,1,15,17.750999999999987,10,82,13,17,19,24,17.811999999999987,4.086999999999997,0.5489999999999999,10.552999999999992,11,11,3,16,83,18,3,42,6,1,72,6,1,L,0.2146024096385542,0.22705555555555554,0.183,0.25126190476190474
17,9,18,1,2,22.325999999999983,14,111,59,58,82,2,23.85099999999998,0.8539999999999996,12.99299999999999,3.2939999999999974,20,4,17,10,120,4,64,14,4,0,17,4.25,1,L,0.19875833333333331,0.2135,0.20301562499999998,0.23528571428571426
17,10,19,1,13,25.68099999999998,12,110,111,115,114,117,25.86399999999998,1.7079999999999989,2.622999999999998,0.6709999999999998,13,5,9,4,111,5,13,4,2,1,24,2,1,L,0.233009009009009,0.3415999999999999,0.20176923076923076,0.16775
17,10,20,1,14,83.4480000000022,10,348,91,67,22,24,84.9120000000022,0.7929999999999997,1.1589999999999994,6.648999999999995,17,2,4,15,355,2,5,33,3,0,19,4.75,1,L,0.23918873239436617,0.39649999999999996,0.23179999999999998,0.20148484848484846
17,11,21,1,3,23.91199999999998,17,108,29,28,14,30,25.86399999999998,3.720999999999997,2.0129999999999986,2.1349999999999985,20,11,9,7,117,15,9,11,5,0.5,36,5.25,1,L,0.22105982905982904,0.24806666666666663,0.22366666666666665,0.1940909090909091
17,11,22,1,12,31.963999999999974,8,121,42,5,43,4,32.32999999999998,2.805999999999998,2.805999999999998,4.940999999999996,12,11,11,13,125,17,11,18,5,0,22,5.5,1,L,0.25864,0.16505882352941176,0.2550909090909091,0.27449999999999997
18,1,1,1,13,12.26099999999999,18,62,114,120,119,67,13.724999999999989,3.903999999999997,1.0369999999999995,28.242999999999977,20,12,3,17,68,15,3,113,2,0.5,16,2.5,1,L,0.20183823529411762,0.26026666666666665,0.3456666666666667,0.2499380530973451
18,1,2,1,2,54.04599999999996,17,230,60,50,51,56,58.07199999999995,4.147999999999997,0.183,0.244,20,14,2,2,244,18,2,2,4,1,48,4,1,L,0.23799999999999996,0.2304444444444444,0.0915,0.122
18,2,3,1,3,44.224999999999966,13,172,33,26,34,28,45.261999999999965,2.1959999999999984,0.061,1.4029999999999991,17,6,1,7,176,9,1,7,5,1,60,5,1,L,0.2571704545454545,0.244,0.061,0.20042857142857143
18,2,4,1,12,47.15299999999996,17,210,40,3,59,119,49.53199999999996,30.438999999999975,8.417999999999994,1.9519999999999986,20,19,16,6,219,111,28,7,5,0,17,4.25,1,L,0.22617351598173513,0.2742252252252252,0.3006428571428571,0.2788571428571428
18,3,5,1,15,15.310999999999988,17,77,14,20,23,22,16.530999999999988,1.8909999999999987,4.7579999999999965,1.2199999999999993,20,8,11,5,82,10,19,5,6,1,72,6,1,L,0.20159756097560974,0.18909999999999996,0.2504210526315789,0.24399999999999994
18,3,6,1,7,33.122999999999976,13,153,4,7,45,48,33.183999999999976,2.1959999999999984,5.550999999999996,4.208999999999997,14,10,13,12,154,14,24,17,6,0,22,5.5,1,L,0.21548051948051947,0.15685714285714286,0.23129166666666665,0.2475882352941176
18,4,7,1,15,38.36899999999997,13,158,21,22,13,19,40.07699999999997,2.561999999999998,2.9279999999999977,5.7339999999999955,19,12,12,12,165,14,15,23,6,1,72,6,1,L,0.24289090909090907,0.183,0.19519999999999996,0.24930434782608693
18,4,8,1,7,14.334999999999988,18,69,1,4,6,12,16.22599999999999,0.9759999999999995,1.2809999999999993,3.537999999999997,20,3,6,9,74,3,7,14,6,1,72,6,1,L,0.21927027027027027,0.3253333333333333,0.183,0.2527142857142857
18,5,9,1,3,88.93800000000283,14,395,33,36,27,66,89.79200000000283,0.7929999999999997,3.2329999999999974,1.8909999999999987,15,4,13,8,397,4,17,10,5,0.5,34,4.75,1,L,0.22617632241813598,0.19824999999999998,0.19017647058823528,0.1891
18,5,10,1,1,15.737999999999987,17,77,79,57,117,17,15.798999999999987,8.356999999999994,2.561999999999998,44.041999999999966,18,15,8,17,78,29,14,198,3,0,15,3.75,1,L,0.20255128205128203,0.2881724137931034,0.183,0.2224343434343434
18,6,11,1,15,14.517999999999988,19,71,15,13,21,96,14.578999999999988,8.356999999999994,2.683999999999998,23.179999999999982,20,15,10,16,72,29,11,98,6,0.5,39,5.25,1,L,0.2024861111111111,0.2881724137931034,0.24399999999999997,0.23653061224489794
18,6,12,1,3,39.89399999999997,13,171,29,35,57,101,40.80899999999997,10.674999999999992,4.086999999999997,4.574999999999997,16,17,13,12,174,43,23,23,5,0,16,4,1,L,0.23453448275862065,0.24825581395348834,0.17769565217391303,0.19891304347826086
18,7,13,1,14,18.177999999999987,18,77,5,93,94,88,62.341999999999956,0.244,0.5489999999999999,0.122,20,4,4,2,255,4,4,2,3,0.5,24,3.75,1,L,0.244478431372549,0.061,0.13724999999999998,0.061
18,7,14,1,12,14.456999999999988,20,76,16,46,82,116,37.63699999999997,2.683999999999998,0.9759999999999995,0.366,20,13,2,4,182,16,2,4,5,0,16,4,1,L,0.20679670329670327,0.16775,0.48799999999999977,0.0915
18,8,15,1,15,17.689999999999987,19,85,13,23,24,52,17.750999999999987,1.4029999999999991,0.6709999999999998,2.0739999999999985,20,6,6,8,86,8,6,10,6,0.5,40,5.5,1,L,0.20640697674418604,0.175375,0.11183333333333333,0.20739999999999997
18,8,16,1,8,18.726999999999986,20,90,45,108,107,104,22.874999999999982,1.524999999999999,0.6709999999999998,1.2199999999999993,20,3,3,4,102,3,3,4,2,0.5,17,2.75,1,L,0.22426470588235292,0.5083333333333331,0.22366666666666665,0.30499999999999994
18,9,17,1,11,24.88799999999998,19,113,71,64,67,77,25.31499999999998,1.7689999999999988,1.2809999999999993,11.83399999999999,20,7,6,16,116,8,6,61,4,0.5,27,3.75,1,L,0.21823275862068964,0.221125,0.2135,0.19399999999999998
18,9,18,1,14,36.96599999999997,18,169,94,95,89,91,37.27099999999997,1.2199999999999993,2.0739999999999985,3.903999999999997,20,5,8,10,171,6,9,13,3,1,36,3,1,L,0.21795906432748535,0.20333333333333334,0.23044444444444442,0.3003076923076922
18,10,19,1,12,25.31499999999998,15,129,40,58,48,54,28.303999999999977,4.6969999999999965,3.659999999999997,2.439999999999998,20,13,10,8,141,21,16,9,5,0,18,4.5,1,L,0.20073758865248226,0.22366666666666662,0.22874999999999995,0.2711111111111111
18,10,20,1,11,28.730999999999977,10,122,63,72,66,68,30.804999999999975,0.183,0.061,0.366,16,2,1,2,128,2,1,2,4,1,48,4,1,L,0.24066406249999997,0.0915,0.061,0.183
18,11,21,1,8,49.83699999999996,19,240,55,102,99,98,54.899999999999956,0.061,2.1959999999999984,0.305,20,1,11,1,267,1,13,1,2,0.5,16,2.5,1,L,0.20561797752808986,0.061,0.16892307692307693,0.305
18,11,22,1,3,20.495999999999984,18,91,25,31,27,111,20.556999999999984,4.574999999999997,0.061,9.698999999999993,19,14,1,15,92,20,1,47,5,0.5,32,4.25,1,L,0.22344565217391302,0.22874999999999998,0.061,0.20636170212765956
19,1,1,1,1,52.58199999999996,11,236,73,83,78,29,54.04599999999996,0.061,0.183,7.136999999999994,16,1,1,14,243,1,1,22,3,0.5,23,3.5,1,L,0.22241152263374483,0.061,0.183,0.32440909090909087
19,1,2,1,13,35.867999999999974,17,144,120,118,115,112,37.94199999999997,0.122,0.6709999999999998,4.513999999999997,20,1,5,14,153,1,5,24,2,1,24,2,1,L,0.24798692810457515,0.122,0.13419999999999999,0.18808333333333332
19,2,3,1,8,18.055999999999987,19,95,108,99,100,104,18.238999999999987,0.122,5.123999999999996,1.463999999999999,20,1,11,4,96,1,19,4,2,1,24,2,1,L,0.18998958333333332,0.122,0.26968421052631575,0.3659999999999999
19,2,4,1,15,26.22999999999998,20,128,20,15,19,14,26.53499999999998,0.366,0.122,11.345999999999991,20,3,2,16,129,3,2,35,6,1,72,6,1,L,0.20569767441860462,0.122,0.061,0.3241714285714285
19,3,5,1,1,46.664999999999964,17,195,4,1,55,84,48.49499999999996,150.79200000000998,0.122,0.122,20,19,2,1,201,623,2,1,3,0,19,4.75,1,L,0.2412686567164179,0.2420417335473515,0.061,0.122
19,3,6,1,12,11.040999999999991,20,59,14,38,43,46,29.70699999999998,0.061,0.488,1.7079999999999989,20,1,2,6,138,1,2,6,5,0.5,36,5.25,1,L,0.21526811594202896,0.061,0.244,0.2846666666666666
19,4,7,1,13,21.837999999999983,20,95,120,112,115,110,23.85099999999998,0.6709999999999998,1.4029999999999991,0.427,20,4,5,2,104,4,6,2,2,1,24,2,1,L,0.22933653846153843,0.16775,0.2338333333333333,0.2135
19,4,8,1,8,91.01200000000307,11,393,108,107,21,70,93.51300000000307,0.244,0.9149999999999996,1.0369999999999995,20,3,3,5,403,3,3,5,2,0,14,3.5,1,L,0.23204218362282877,0.08133333333333333,0.305,0.2074
19,5,9,1,14,13.54199999999999,18,62,88,87,69,96,13.968999999999989,2.439999999999998,5.550999999999996,2.622999999999998,19,9,11,10,63,10,23,13,3,0.5,22,3.25,1,L,0.22173015873015872,0.244,0.2413478260869565,0.20176923076923076
19,5,10,1,1,15.737999999999987,20,65,114,112,19,20,46.054999999999964,11.223999999999991,12.87099999999999,0.244,20,19,18,3,189,50,41,3,3,0,16,4,1,L,0.24367724867724866,0.22447999999999999,0.31392682926829263,0.08133333333333333
19,6,11,1,7,56.058999999999955,17,232,28,5,11,7,59.47499999999995,0.305,0.9759999999999995,4.147999999999997,20,2,3,9,241,2,4,12,6,0.5,41,5.75,1,L,0.2467842323651452,0.1525,0.244,0.34566666666666657
19,6,12,1,11,29.767999999999976,7,138,68,72,67,63,31.170999999999975,1.585999999999999,1.1589999999999994,4.330999999999997,13,8,4,8,144,9,4,15,4,1,48,4,1,L,0.21646527777777777,0.17622222222222222,0.28974999999999995,0.2887333333333333
19,7,13,1,15,69.54000000000059,10,306,20,17,83,44,70.15000000000059,1.0369999999999995,4.818999999999996,3.659999999999997,16,4,13,11,312,5,22,15,6,0,20,5,1,L,0.22483974358974357,0.2074,0.21904545454545454,0.244
19,7,14,1,14,27.388999999999978,12,134,88,86,8,96,28.730999999999977,0.061,5.184999999999996,0.122,17,1,14,2,140,1,23,2,3,0.5,24,3.75,1,L,0.20522142857142855,0.061,0.22543478260869562,0.061
19,8,15,1,3,37.33199999999997,11,154,31,99,36,32,40.01599999999997,2.744999999999998,1.7079999999999989,1.585999999999999,19,6,8,6,165,8,9,7,5,0.5,32,4.25,1,L,0.24252121212121208,0.3431249999999999,0.18977777777777777,0.22657142857142848
19,8,16,1,14,14.944999999999988,20,81,87,85,92,90,16.774999999999988,0.427,1.9519999999999986,2.1349999999999985,20,2,8,9,88,2,11,11,3,1,36,3,1,L,0.190625,0.2135,0.17745454545454545,0.1940909090909091
19,9,17,1,8,12.44399999999999,19,68,103,16,15,13,12.62699999999999,22.813999999999982,11.77299999999999,1.3419999999999992,20,19,17,8,69,88,46,8,2,0.5,38,5,1,L,0.183,0.25925,0.2559347826086956,0.16775
19,9,18,1,7,16.28699999999999,13,86,10,5,12,118,17.140999999999988,0.8539999999999996,3.4159999999999973,1.585999999999999,16,6,11,4,89,6,18,5,6,0.5,38,5,1,L,0.1925955056179775,0.14233333333333334,0.18977777777777777,0.3172
19,10,19,1,7,13.48099999999999,19,66,8,2,5,115,13.54199999999999,13.785999999999989,2.805999999999998,12.80999999999999,20,18,6,16,67,68,8,61,6,0.5,38,5,1,L,0.2021194029850746,0.20273529411764704,0.35074999999999995,0.20999999999999996
19,10,20,1,12,11.528999999999991,13,56,15,53,43,41,88.26700000000142,0.061,0.183,1.7079999999999989,20,1,3,6,370,1,3,7,5,0,20,5,1,L,0.23855945945945942,0.061,0.061,0.24399999999999997
20,1,1,1,12,34.769999999999975,15,143,37,8,7,45,35.074999999999974,36.66099999999997,157.44100000001075,14.395999999999988,17,19,18,15,145,147,629,64,5,0,22,5.5,1,L,0.2418965517241379,0.24939455782312922,0.2503036565977742,0.22493749999999998
20,1,2,1,3,13.23699999999999,15,56,28,26,32,15,14.822999999999988,4.7579999999999965,5.123999999999996,10.247999999999992,20,15,13,15,64,20,24,34,5,0.5,36,5.25,1,L,0.23160937499999998,0.2379,0.2135,0.3014117647058823
20,2,3,1,12,57.034999999999954,13,247,47,43,66,48,59.23099999999995,0.244,1.4029999999999991,1.8299999999999987,20,1,1,8,257,1,2,13,5,0.5,34,4.75,1,L,0.23047081712062253,0.244,0.7014999999999997,0.14076923076923076
20,2,4,1,15,22.508999999999983,20,106,17,14,23,24,23.48499999999998,8.539999999999994,1.7689999999999988,0.6709999999999998,20,18,4,4,110,43,5,4,6,1,72,6,1,L,0.2135,0.1986046511627907,0.35379999999999995,0.16775
20,3,5,1,14,29.096999999999976,17,137,88,90,86,46,29.218999999999976,0.183,0.366,9.149999999999993,18,2,2,13,138,2,2,41,3,0.5,23,3.5,1,L,0.211731884057971,0.0915,0.183,0.22317073170731705
20,3,6,1,3,32.39099999999998,16,134,33,31,36,26,32.75699999999998,1.2199999999999993,1.8909999999999987,2.1959999999999984,19,3,4,8,137,3,5,9,5,1,60,5,1,L,0.23910218978102188,0.4066666666666666,0.3781999999999999,0.244
20,4,7,1,1,26.65699999999998,20,132,73,37,8,61,27.327999999999978,16.10399999999999,0.8539999999999996,4.086999999999997,20,19,4,14,136,63,5,27,3,0,18,4.5,1,L,0.2009411764705882,0.2556190476190476,0.1708,0.15137037037037038
20,4,8,1,14,21.410999999999984,18,104,32,20,90,95,40.99199999999997,13.785999999999989,1.0979999999999994,0.061,20,19,5,1,202,53,6,1,3,0,17,4.25,1,L,0.20293069306930692,0.26011320754716977,0.183,0.061
20,5,9,1,3,50.87399999999996,16,228,27,36,35,58,51.17899999999996,1.585999999999999,3.1109999999999975,8.844999999999994,18,5,9,14,230,8,9,35,5,0.5,34,4.75,1,L,0.2225173913043478,0.19824999999999998,0.34566666666666657,0.25271428571428567
20,5,10,1,11,27.510999999999978,19,120,64,6,5,4,28.913999999999977,6.587999999999995,4.086999999999997,5.672999999999996,20,14,12,15,131,30,14,27,4,0.5,40,5.5,1,L,0.22071755725190836,0.2196,0.29192857142857137,0.2101111111111111
20,6,11,1,14,26.59599999999998,18,142,88,85,93,87,27.205999999999978,1.0369999999999995,0.366,0.7319999999999998,20,6,2,6,145,6,3,6,3,1,36,3,1,L,0.18762758620689654,0.17283333333333334,0.122,0.122
20,6,12,1,2,68.38100000000045,14,294,49,58,50,10,69.23500000000045,2.561999999999998,1.3419999999999992,1.524999999999999,17,7,5,4,298,10,5,4,4,0.5,30,4.5,1,L,0.23233221476510066,0.2562,0.26839999999999997,0.3812499999999999
20,7,13,1,3,24.88799999999998,15,109,36,31,34,30,26.59599999999998,2.500999999999998,0.9759999999999995,4.818999999999996,20,8,2,11,115,9,2,23,5,1,60,5,1,L,0.23126956521739128,0.27788888888888885,0.4879999999999998,0.2095217391304348
20,7,14,1,1,16.40899999999999,12,89,78,77,108,65,18.726999999999986,1.0979999999999994,13.41999999999999,1.3419999999999992,19,3,17,7,98,3,61,8,3,0,12,3,1,L,0.19109183673469388,0.3659999999999999,0.21999999999999997,0.16775
20,8,15,1,11,53.00899999999996,19,247,69,67,65,79,53.25299999999996,3.0499999999999976,2.3179999999999983,2.0129999999999986,20,10,6,8,250,16,7,9,4,0.5,27,3.75,1,L,0.21301199999999998,0.19062499999999996,0.33114285714285713,0.22366666666666665
20,8,16,1,2,31.353999999999974,18,154,49,58,39,50,31.963999999999974,0.9149999999999996,2.1349999999999985,0.183,20,3,7,2,157,4,11,2,4,0.5,29,4.25,1,L,0.20359235668789807,0.22875,0.1940909090909091,0.0915
20,9,17,1,11,19.763999999999985,16,92,13,89,64,15,52.825999999999965,2.683999999999998,0.183,0.244,20,7,2,2,219,9,2,2,4,0,19,4.75,1,L,0.2412146118721461,0.2982222222222222,0.0915,0.122
20,9,18,1,2,19.824999999999985,17,86,54,58,57,77,21.471999999999984,0.061,2.439999999999998,11.040999999999991,20,1,5,16,96,1,9,52,4,0.5,27,3.75,1,L,0.22366666666666665,0.061,0.2711111111111111,0.21232692307692305
20,10,19,1,8,43.919999999999966,17,177,104,97,108,27,45.261999999999965,1.7079999999999989,0.061,6.404999999999995,20,5,1,15,184,6,1,33,2,0.5,17,2.75,1,L,0.24598913043478257,0.28466666666666657,0.061,0.19409090909090906
20,10,20,1,1,23.97299999999998,20,106,76,83,73,4,24.58299999999998,0.7319999999999998,2.9279999999999977,2.2569999999999983,20,4,7,6,110,5,8,8,3,0.5,24,3.75,1,L,0.22348181818181817,0.1464,0.36599999999999994,0.28212499999999996
21,1,1,1,12,29.462999999999976,14,132,42,44,18,43,30.072999999999976,2.622999999999998,7.746999999999994,2.1349999999999985,17,10,14,8,135,11,32,9,5,0.5,36,5.25,1,L,0.22276296296296294,0.23845454545454545,0.24209374999999997,0.23722222222222217
21,1,2,1,11,37.51499999999997,19,183,70,69,2,3,38.36899999999997,1.3419999999999992,5.306999999999996,11.77299999999999,20,6,14,15,188,7,21,47,4,0,20,5,1,L,0.2040904255319149,0.1917142857142857,0.25271428571428567,0.25048936170212766
21,2,3,1,12,45.627999999999965,16,197,37,63,72,10,46.298999999999964,5.245999999999996,0.244,18.360999999999986,20,11,2,17,202,22,2,90,5,0,19,4.75,1,L,0.22920297029702968,0.23845454545454542,0.122,0.2040111111111111
21,2,4,1,1,57.94999999999995,17,240,77,76,82,80,60.26799999999995,1.646999999999999,0.122,0.061,20,6,1,1,247,8,1,1,3,1,36,3,1,L,0.24399999999999997,0.205875,0.122,0.061
21,3,5,1,13,8.722999999999994,19,48,112,109,110,114,9.271999999999993,3.476999999999997,0.7319999999999998,2.561999999999998,20,13,4,10,52,20,5,12,2,1,24,2,1,L,0.1783076923076923,0.17385,0.1464,0.21349999999999997
21,3,6,1,1,22.020999999999983,16,88,81,74,79,78,23.85099999999998,0.122,1.2809999999999993,2.3789999999999982,20,1,3,12,94,1,3,15,3,1,36,3,1,L,0.25373404255319143,0.122,0.4269999999999999,0.1586
21,4,7,1,15,13.663999999999989,20,62,15,16,20,21,13.724999999999989,0.7319999999999998,0.7319999999999998,2.0739999999999985,20,1,2,6,63,1,3,6,6,1,72,6,1,L,0.21785714285714283,0.7319999999999998,0.244,0.3456666666666665
21,4,8,1,3,11.650999999999991,19,57,30,35,29,25,11.71199999999999,0.5489999999999999,0.244,2.744999999999998,20,4,3,11,58,6,3,17,5,1,60,5,1,L,0.20193103448275862,0.0915,0.08133333333333333,0.16147058823529412
21,5,9,1,7,12.68799999999999,18,63,5,12,7,9,13.41999999999999,3.781999999999997,0.061,2.622999999999998,20,12,1,9,66,18,1,10,6,1,72,6,1,L,0.20333333333333334,0.2101111111111111,0.061,0.2623
21,5,10,1,14,15.737999999999987,17,85,96,16,39,104,16.34799999999999,60.51199999999995,6.404999999999995,5.062999999999996,20,19,18,13,88,240,29,23,3,0,16,4,1,L,0.18577272727272726,0.2521333333333333,0.22086206896551722,0.22013043478260869
21,6,11,1,14,19.397999999999985,12,90,17,102,16,69,36.78299999999997,5.611999999999996,5.7339999999999955,0.183,20,13,14,1,152,19,22,1,3,0,18,4.5,1,L,0.24199342105263155,0.29536842105263156,0.2606363636363636,0.183
21,6,12,1,7,4.208999999999997,7,25,9,1,11,44,5.489999999999997,6.221999999999995,0.8539999999999996,1.585999999999999,12,9,3,3,30,19,4,3,6,0.5,41,5.75,1,L,0.183,0.3274736842105262,0.2135,0.5286666666666664
21,7,13,1,12,26.71799999999998,19,119,40,39,45,14,26.83999999999998,1.8299999999999987,0.122,8.051999999999994,20,4,1,15,120,4,1,28,5,0.5,36,5.25,1,L,0.22366666666666665,0.4574999999999998,0.122,0.28757142857142853
21,7,14,1,3,44.163999999999966,14,199,30,29,52,32,45.078999999999965,0.244,0.9759999999999995,2.8669999999999978,15,1,2,11,200,1,2,19,5,0.5,34,4.75,1,L,0.22539499999999998,0.244,0.4879999999999999,0.15089473684210525
21,8,15,1,11,13.846999999999989,11,61,63,64,13,69,14.700999999999988,0.488,3.0499999999999976,0.7319999999999998,15,4,9,3,65,5,10,3,4,0.5,30,4.5,1,L,0.22616923076923076,0.09759999999999999,0.30499999999999994,0.244
21,8,16,1,3,16.835999999999988,20,101,27,26,9,28,18.299999999999986,6.160999999999995,25.80299999999998,5.428999999999996,20,13,18,15,108,22,107,23,5,0.5,36,5.25,1,L,0.16944444444444443,0.2800454545454545,0.24114953271028033,0.23604347826086955
