Subject,Round,Phase,afterbreak,Schema,Schema_RT,Schema_OB,Schema_AS,Cho_1,Cho_2,Cho_3,Cho_4,RT_1,RT_2,RT_3,RT_4,OB_1,OB_2,OB_3,OB_4,AS_1,AS_2,AS_3,AS_4,schema_payoff,AC,performance,payoff,breakR,type,dwellmean_1,dwellmean_2,dwellmean_3,dwellmean_4
1,1,1,0,8,20.983999999999984,20,110,112,114,111,60,21.898999999999983,1.9519999999999986,2.2569999999999983,0.6709999999999998,20,11,7,2,117,14,9,2,2,0.5,16,2.5,6,L,0.18717094017094016,0.13942857142857143,0.25077777777777777,0.3355
1,1,2,0,1,24.46099999999998,19,114,81,80,73,84,24.94899999999998,0.7929999999999997,0.305,0.061,20,4,4,1,116,4,4,1,3,1,36,3,6,L,0.21507758620689654,0.19824999999999998,0.07625,0.061
1,2,3,0,8,18.116999999999987,20,107,109,112,8,40,20.373999999999985,0.183,7.624999999999994,0.122,20,1,15,1,119,1,28,1,2,0,15,3.75,6,L,0.17121008403361343,0.183,0.27232142857142855,0.122
1,2,4,0,7,20.007999999999985,19,90,70,61,31,32,35.745999999999974,3.781999999999997,4.513999999999997,0.122,20,9,11,2,151,12,18,2,6,0,18,4.5,6,L,0.23672847682119202,0.31516666666666665,0.25077777777777777,0.061
1,3,5,0,3,21.837999999999983,18,99,27,29,26,52,22.630999999999982,1.463999999999999,0.6709999999999998,5.001999999999996,20,6,3,12,101,6,4,20,5,0.5,34,4.75,6,L,0.22406930693069305,0.244,0.16775,0.2501
1,3,6,0,4,32.69599999999998,18,141,100,99,98,69,33.488999999999976,0.183,2.0129999999999986,2.0129999999999986,20,2,10,6,144,2,11,8,2,0.5,16,2.5,6,L,0.23256249999999998,0.0915,0.183,0.251625
1,4,7,0,3,21.410999999999984,20,127,29,31,32,21,21.837999999999983,0.122,1.463999999999999,5.855999999999995,20,1,5,15,129,1,5,26,5,0.5,36,5.25,6,L,0.16928682170542636,0.122,0.29279999999999995,0.2252307692307692
1,4,8,0,6,17.018999999999988,20,84,7,1,3,8,18.787999999999986,3.2329999999999974,2.2569999999999983,1.3419999999999992,20,10,10,7,92,14,15,9,6,1,72,6,6,L,0.20421739130434782,0.23092857142857137,0.15046666666666667,0.1491111111111111
1,5,9,0,2,22.996999999999982,16,106,55,49,22,60,23.72899999999998,1.8909999999999987,3.9649999999999967,1.585999999999999,20,8,8,9,112,14,12,10,4,0.5,30,4.5,6,L,0.21186607142857142,0.13507142857142856,0.33041666666666664,0.1586
1,5,10,0,1,19.092999999999986,14,79,80,78,65,41,19.153999999999986,2.2569999999999983,14.029999999999989,1.3419999999999992,15,9,17,7,80,10,56,7,3,0,15,3.75,6,L,0.23942499999999997,0.22569999999999996,0.25053571428571425,0.1917142857142857
2,1,1,0,8,13.724999999999989,19,71,117,14,118,90,21.044999999999984,6.709999999999995,0.7929999999999997,11.284999999999991,20,17,5,16,109,28,5,51,2,0,13,3.25,6,L,0.19307339449541283,0.23964285714285713,0.1586,0.22127450980392155
2,1,2,0,2,17.689999999999987,20,103,59,6,2,4,19.397999999999985,4.086999999999997,7.685999999999994,11.284999999999991,20,9,13,17,107,17,31,47,4,0.5,40,5.5,6,L,0.18128971962616822,0.24041176470588235,0.24793548387096773,0.24010638297872336
2,2,3,0,9,27.14499999999998,20,129,66,72,70,6,28.974999999999977,1.9519999999999986,3.537999999999997,12.62699999999999,20,8,7,17,138,10,9,61,4,0.5,30,4.5,6,L,0.209963768115942,0.19519999999999998,0.393111111111111,0.20699999999999996
2,2,4,0,2,19.336999999999986,20,94,55,21,54,48,20.312999999999985,11.528999999999991,2.805999999999998,0.6709999999999998,20,17,11,2,99,42,16,2,4,0,19,4.75,6,L,0.2051818181818182,0.27449999999999997,0.175375,0.3354999999999999
2,3,5,0,6,27.510999999999978,19,137,4,12,9,39,28.364999999999977,2.683999999999998,1.4029999999999991,11.650999999999991,20,8,5,16,141,8,6,58,6,0.5,41,5.75,6,L,0.20117021276595742,0.33549999999999996,0.23383333333333328,0.2008793103448276
2,3,6,0,10,25.49799999999998,20,141,93,89,69,68,25.74199999999998,5.550999999999996,8.722999999999994,0.9149999999999996,20,11,16,6,142,17,37,6,3,0,14,3.5,6,L,0.18128169014084505,0.32652941176470585,0.23575675675675672,0.1525
2,4,7,0,3,18.177999999999987,20,90,26,34,27,93,19.641999999999985,0.488,3.2939999999999974,7.319999999999994,20,1,11,16,96,1,12,36,5,0.5,33,4.5,6,L,0.20460416666666664,0.488,0.27449999999999997,0.2033333333333333
2,4,8,0,5,36.29499999999997,20,155,15,23,83,42,63.073999999999955,0.488,0.366,0.122,20,3,1,2,256,3,1,2,5,0,20,5,6,L,0.24638281249999996,0.16266666666666665,0.366,0.061
2,5,9,0,7,6.099999999999995,13,30,17,13,20,24,6.282999999999995,1.8909999999999987,3.842999999999997,3.1719999999999975,14,6,14,10,31,6,20,12,6,1,72,6,6,L,0.2026774193548387,0.31516666666666665,0.19215,0.2643333333333333
2,5,10,0,6,17.567999999999987,18,90,4,81,2,69,18.665999999999986,11.223999999999991,8.417999999999994,1.8299999999999987,20,18,16,8,95,49,27,12,6,0,19,4.75,6,L,0.19648421052631576,0.2290612244897959,0.3117777777777777,0.1525
3,1,1,0,8,20.617999999999984,19,90,113,116,110,111,21.227999999999984,1.2199999999999993,3.1109999999999975,1.9519999999999986,20,6,12,6,93,6,19,9,2,1,24,2,6,L,0.228258064516129,0.20333333333333334,0.16373684210526315,0.21688888888888885
3,1,2,0,1,25.43699999999998,20,118,80,81,38,78,25.86399999999998,4.086999999999997,1.646999999999999,1.2199999999999993,20,13,5,4,121,18,6,5,3,0.5,23,3.5,6,L,0.21375206611570247,0.22705555555555554,0.2744999999999999,0.244
3,2,3,0,2,17.140999999999988,18,88,32,49,74,77,20.983999999999984,0.122,16.774999999999988,5.062999999999996,20,1,18,15,103,1,72,22,4,0,15,3.75,6,L,0.20372815533980582,0.122,0.2329861111111111,0.2301363636363636
3,2,4,0,10,21.837999999999983,20,99,86,94,42,89,23.179999999999982,1.2199999999999993,3.0499999999999976,0.244,20,5,10,3,105,7,12,3,3,0.5,23,3.5,6,L,0.22076190476190474,0.1742857142857143,0.25416666666666665,0.08133333333333333
3,3,5,0,10,38.30799999999997,20,180,95,86,88,9,38.79599999999997,0.183,2.744999999999998,5.428999999999996,20,2,10,10,181,2,14,19,3,0.5,24,3.75,6,L,0.21434254143646408,0.0915,0.19607142857142856,0.2857368421052631
3,3,6,0,7,14.334999999999988,18,79,14,18,20,39,14.395999999999988,10.247999999999992,1.463999999999999,4.879999999999996,19,17,5,11,80,54,5,17,6,0.5,41,5.75,6,L,0.17995,0.18977777777777777,0.2928,0.2870588235294117
3,4,7,0,2,25.98599999999998,19,132,54,74,37,56,32.26899999999998,4.6969999999999965,10.491999999999992,0.305,20,14,16,3,155,26,28,3,4,0,16,4,6,L,0.20818709677419353,0.18065384615384614,0.3747142857142856,0.10166666666666667
3,4,8,0,10,26.04699999999998,18,109,94,90,86,15,26.47399999999998,1.2809999999999993,2.0129999999999986,5.672999999999996,20,2,7,13,112,2,11,33,3,0.5,24,3.75,6,L,0.23637499999999997,0.6404999999999998,0.183,0.1719090909090909
3,5,9,0,8,25.86399999999998,18,125,114,118,109,112,27.327999999999978,3.659999999999997,5.611999999999996,0.183,20,9,14,2,130,12,19,2,2,1,24,2,6,L,0.2102153846153846,0.305,0.29536842105263156,0.0915
3,5,10,0,4,22.569999999999983,20,125,105,33,86,102,23.91199999999998,1.1589999999999994,4.208999999999997,0.122,20,3,11,1,135,3,13,1,2,0,12,3,6,L,0.1771259259259259,0.3863333333333332,0.3237692307692307,0.122
4,1,1,0,8,17.994999999999987,20,92,114,6,113,64,18.726999999999986,6.221999999999995,0.7319999999999998,2.9889999999999977,20,14,6,7,95,25,6,13,2,0,14,3.5,6,L,0.19712631578947368,0.24887999999999996,0.122,0.22992307692307692
4,1,2,0,10,13.23699999999999,18,54,86,91,94,89,15.066999999999988,1.585999999999999,2.9279999999999977,2.500999999999998,20,7,13,9,64,8,14,11,3,1,36,3,6,L,0.23542187499999997,0.19824999999999998,0.2091428571428571,0.22736363636363635
4,2,3,0,4,21.776999999999983,20,112,107,100,58,51,23.301999999999982,1.4029999999999991,11.406999999999991,4.330999999999997,20,7,17,12,118,7,57,17,2,0,12,3,6,L,0.19747457627118642,0.20042857142857143,0.20012280701754384,0.25476470588235295
4,2,4,0,10,12.32199999999999,20,61,1,7,90,86,20.373999999999985,10.735999999999992,0.9149999999999996,0.061,20,17,3,1,83,47,4,1,3,0,18,4.5,6,L,0.24546987951807225,0.2284255319148936,0.22874999999999995,0.061
4,3,5,0,4,9.820999999999993,19,46,100,98,106,29,10.552999999999992,3.781999999999997,12.50499999999999,7.380999999999994,20,12,14,15,49,21,48,33,2,0.5,17,2.75,6,L,0.2153673469387755,0.18009523809523809,0.2605208333333333,0.22366666666666665
4,3,6,0,9,32.45199999999998,20,151,65,67,40,116,32.63499999999998,4.208999999999997,2.9889999999999977,3.2939999999999974,20,10,10,9,153,15,13,14,4,0,15,3.75,6,L,0.2133006535947712,0.28059999999999996,0.2299230769230769,0.23528571428571426
4,4,7,0,6,13.846999999999989,17,69,5,7,10,9,18.787999999999986,2.1959999999999984,2.0739999999999985,2.9279999999999977,20,8,6,9,93,9,7,12,6,1,72,6,6,L,0.20202150537634408,0.244,0.29628571428571426,0.24399999999999997
4,4,8,0,8,13.724999999999989,17,66,15,112,110,51,35.867999999999974,0.7929999999999997,0.183,0.122,20,3,3,1,166,3,3,1,2,0,14,3.5,6,L,0.2160722891566265,0.2643333333333333,0.061,0.122
4,5,9,0,2,19.641999999999985,20,93,57,58,52,27,22.691999999999982,0.9149999999999996,0.6709999999999998,10.186999999999992,20,5,3,17,109,6,3,42,4,0.5,29,4.25,6,L,0.20818348623853208,0.1525,0.22366666666666665,0.242547619047619
4,5,10,0,4,9.759999999999993,17,42,14,41,73,103,64.04999999999995,0.061,0.061,0.427,20,1,1,3,258,1,1,4,2,0,16,4,6,L,0.24825581395348834,0.061,0.061,0.10675
5,1,1,0,10,25.86399999999998,20,116,90,91,85,56,25.98599999999998,2.9889999999999977,0.488,8.173999999999994,20,6,4,14,117,8,4,33,3,0.5,22,3.25,6,L,0.22210256410256407,0.3736249999999999,0.122,0.2476969696969697
5,1,2,0,7,19.763999999999985,20,96,48,70,37,69,32.81799999999998,1.7079999999999989,0.122,2.439999999999998,20,5,1,8,145,8,1,11,6,0,18,4.5,6,L,0.2263310344827586,0.2135,0.122,0.22181818181818175
5,2,3,0,1,26.96199999999998,18,106,83,75,42,74,29.340999999999976,1.8299999999999987,3.4159999999999973,0.061,20,6,6,1,117,6,8,1,3,0.5,23,3.5,6,L,0.25077777777777777,0.30499999999999994,0.4269999999999999,0.061
5,2,4,0,10,23.60699999999998,20,113,96,2,5,4,23.66799999999998,42.02899999999997,0.061,0.9759999999999995,20,19,1,6,114,154,1,7,3,0.5,39,5.25,6,L,0.20761403508771928,0.2729155844155844,0.061,0.13942857142857143
5,3,5,0,3,22.081999999999983,19,104,28,30,62,13,22.874999999999982,2.683999999999998,4.452999999999997,0.244,20,8,12,2,107,11,17,2,5,0,20,5,6,L,0.21378504672897194,0.24399999999999997,0.2619411764705882,0.122
5,3,6,0,2,15.798999999999987,20,80,58,59,57,46,15.981999999999987,0.7319999999999998,3.2329999999999974,3.720999999999997,20,3,9,8,81,3,10,11,4,0.5,29,4.25,6,L,0.19730864197530865,0.244,0.3233,0.3382727272727272
5,4,7,0,3,17.384999999999987,20,91,35,23,25,19,23.66799999999998,7.441999999999994,2.3179999999999983,0.427,20,17,6,3,115,37,8,3,5,0,22,5.5,6,L,0.20580869565217388,0.20113513513513512,0.28974999999999995,0.14233333333333334
5,4,8,0,6,15.310999999999988,17,70,5,12,10,59,15.432999999999987,0.5489999999999999,1.463999999999999,1.463999999999999,18,2,7,1,71,2,11,2,6,0.5,40,5.5,6,L,0.21736619718309858,0.27449999999999997,0.1330909090909091,0.7319999999999995
5,5,9,0,7,22.020999999999983,20,106,14,13,20,21,24.03399999999998,8.905999999999993,2.3789999999999982,1.585999999999999,20,16,9,6,112,40,11,6,6,1,72,6,6,L,0.2145892857142857,0.22265,0.21627272727272726,0.2643333333333333
5,5,10,0,3,31.780999999999974,19,151,31,33,32,35,32.39099999999998,1.524999999999999,0.061,4.147999999999997,20,5,1,9,153,5,1,15,5,1,60,5,6,L,0.21170588235294116,0.30499999999999994,0.061,0.2765333333333333
6,1,1,0,9,19.153999999999986,20,84,69,61,19,39,22.813999999999982,3.1719999999999975,5.123999999999996,1.463999999999999,20,9,14,5,100,15,27,6,4,0,19,4.75,6,L,0.22813999999999998,0.21146666666666666,0.18977777777777777,0.24399999999999997
6,1,2,0,3,36.53899999999997,20,168,79,3,55,53,59.23099999999995,0.427,0.366,0.305,20,4,1,3,256,4,1,3,5,0,17,4.25,6,L,0.23137109374999998,0.10675,0.366,0.10166666666666667
6,2,3,0,3,21.959999999999983,20,101,30,32,33,1,25.61999999999998,0.6099999999999999,4.330999999999997,2.500999999999998,20,2,13,9,114,2,18,15,5,0.5,36,5.25,6,L,0.22473684210526315,0.305,0.24061111111111108,0.16673333333333332
6,2,4,0,8,18.604999999999986,19,91,112,113,109,16,18.787999999999986,10.430999999999992,1.4029999999999991,1.2199999999999993,20,16,6,6,94,39,7,8,2,0.5,18,3,6,L,0.1998723404255319,0.2674615384615384,0.20042857142857143,0.1525
6,3,5,0,3,16.16499999999999,19,69,33,35,93,1,19.763999999999985,2.0129999999999986,22.264999999999983,2.439999999999998,20,7,17,9,78,7,94,11,5,0,19,4.75,6,L,0.2533846153846154,0.2875714285714285,0.23686170212765956,0.2218181818181818
6,3,6,0,5,29.035999999999976,20,125,38,45,43,46,30.255999999999975,0.305,5.062999999999996,0.122,20,2,10,1,129,2,17,1,5,1,60,5,6,L,0.2345426356589147,0.1525,0.29782352941176465,0.122
6,4,7,0,5,12.93199999999999,19,55,40,46,38,81,12.99299999999999,0.7929999999999997,11.589999999999991,4.391999999999997,20,4,15,12,56,5,43,18,5,0.5,33,4.5,6,L,0.2320178571428571,0.1586,0.2695348837209302,0.244
6,4,8,0,9,22.386999999999983,18,116,15,65,18,23,37.20999999999997,0.6709999999999998,3.2939999999999974,3.720999999999997,20,4,9,8,185,4,10,10,4,0.5,40,5.5,6,L,0.20113513513513512,0.16775,0.3293999999999999,0.37209999999999993
6,5,9,0,7,18.055999999999987,20,86,23,14,15,22,20.068999999999985,5.123999999999996,2.0739999999999985,1.0979999999999994,20,12,9,5,98,19,9,7,6,1,72,6,6,L,0.20478571428571427,0.26968421052631575,0.23044444444444442,0.15685714285714286
6,5,10,0,2,12.07799999999999,20,64,46,56,57,54,22.020999999999983,0.061,3.598999999999997,2.0129999999999986,20,1,9,5,96,1,10,5,4,0.5,29,4.25,6,L,0.22938541666666665,0.061,0.3598999999999999,0.4025999999999999
7,1,1,0,8,13.54199999999999,19,68,113,114,120,118,14.334999999999988,0.427,1.9519999999999986,5.245999999999996,20,3,6,14,74,3,8,21,2,1,24,2,6,L,0.1937162162162162,0.14233333333333334,0.244,0.2498095238095238
7,1,2,0,4,21.776999999999983,20,109,17,102,99,23,24.76599999999998,1.7689999999999988,2.9279999999999977,1.524999999999999,20,5,7,9,117,5,10,10,2,0,16,4,6,L,0.21167521367521366,0.35379999999999995,0.29279999999999995,0.1525
7,2,3,0,4,19.031999999999986,16,80,106,13,72,104,22.874999999999982,10.308999999999992,0.366,0.305,20,17,1,2,95,40,1,2,2,0,14,3.5,6,L,0.2407894736842105,0.257725,0.366,0.1525
7,2,4,0,2,19.336999999999986,20,98,55,49,59,50,22.325999999999983,0.9149999999999996,1.0369999999999995,0.061,20,3,6,1,107,3,7,1,4,1,48,4,6,L,0.2086542056074766,0.305,0.14814285714285713,0.061
7,3,5,0,1,22.691999999999982,18,110,79,75,80,35,23.54599999999998,0.5489999999999999,0.061,5.062999999999996,20,3,1,12,113,3,1,23,3,0.5,23,3.5,6,L,0.20837168141592918,0.183,0.061,0.22013043478260869
7,3,6,0,8,22.142999999999983,20,109,111,116,114,38,24.52199999999998,0.061,0.7319999999999998,6.648999999999995,20,1,4,13,122,1,4,29,2,0.5,17,2.75,6,L,0.20099999999999998,0.061,0.183,0.2292758620689655
7,4,7,0,10,13.907999999999989,20,74,92,89,55,115,16.16499999999999,3.4159999999999973,18.299999999999986,1.463999999999999,20,11,18,4,82,14,80,5,3,0,12,3,6,L,0.1971341463414634,0.24399999999999997,0.22874999999999998,0.29279999999999995
7,4,8,0,9,21.471999999999984,19,106,69,72,67,98,25.49799999999998,0.061,1.1589999999999994,4.940999999999996,20,1,9,14,126,1,9,27,4,0.5,26,3.5,6,L,0.20236507936507936,0.061,0.12877777777777777,0.183
7,5,9,0,1,33.427999999999976,20,139,76,83,77,79,42.45599999999997,0.427,3.659999999999997,0.488,20,3,10,3,170,3,13,3,3,1,36,3,6,L,0.24974117647058822,0.14233333333333334,0.2815384615384615,0.16266666666666665
7,5,10,0,2,21.776999999999983,18,82,53,60,55,50,22.874999999999982,0.305,1.4029999999999991,5.977999999999995,20,2,4,15,86,2,4,25,4,1,48,4,6,L,0.26598837209302323,0.1525,0.3507499999999999,0.23911999999999997
8,1,1,0,1,21.715999999999983,20,100,77,21,16,17,24.70499999999998,1.646999999999999,15.981999999999987,2.3789999999999982,20,3,18,8,115,3,70,10,3,0.5,39,5.25,6,L,0.21482608695652172,0.5489999999999998,0.2283142857142857,0.23789999999999997
8,1,2,0,5,17.140999999999988,19,89,47,46,38,41,17.445999999999987,4.452999999999997,0.7319999999999998,1.646999999999999,20,12,4,8,90,16,4,9,5,1,60,5,6,L,0.19384444444444443,0.27831249999999996,0.183,0.18299999999999997
8,2,3,0,8,17.689999999999987,20,80,110,3,9,113,21.288999999999984,1.2809999999999993,14.090999999999989,0.122,20,3,18,2,97,3,63,2,2,0,16,4,6,L,0.2194742268041237,0.42699999999999994,0.22366666666666665,0.061
8,2,4,0,4,16.774999999999988,20,79,100,102,103,65,19.885999999999985,4.7579999999999965,3.4159999999999973,1.4029999999999991,20,17,8,7,89,30,11,8,2,0.5,16,2.5,6,L,0.223438202247191,0.1586,0.3105454545454545,0.175375
8,3,5,0,5,20.312999999999985,20,90,46,44,24,13,20.373999999999985,8.051999999999994,2.3179999999999983,1.1589999999999994,20,16,8,2,91,40,10,3,5,0,22,5.5,6,L,0.22389010989010988,0.20129999999999998,0.2318,0.38633333333333325
8,3,6,0,6,15.493999999999987,19,78,9,30,62,86,26.41299999999998,2.744999999999998,5.550999999999996,2.3179999999999983,20,10,15,7,119,13,24,11,6,0,18,4.5,6,L,0.2219579831932773,0.21115384615384614,0.23129166666666665,0.2107272727272727
8,4,7,0,2,34.891999999999975,18,137,56,49,57,30,35.257999999999974,1.1589999999999994,3.903999999999997,2.622999999999998,19,4,10,10,138,5,15,14,4,0.5,29,4.25,6,L,0.2554927536231884,0.23179999999999995,0.26026666666666665,0.18735714285714286
8,4,8,0,1,24.46099999999998,15,97,79,84,82,14,28.669999999999977,0.9759999999999995,1.8909999999999987,2.2569999999999983,20,6,8,6,119,7,13,8,3,0.5,24,3.75,6,L,0.24092436974789913,0.13942857142857143,0.14546153846153845,0.28212499999999996
8,5,9,0,1,25.13199999999998,19,115,75,76,64,18,26.53499999999998,1.9519999999999986,3.598999999999997,6.953999999999994,20,6,10,14,123,9,13,29,3,0,16,4,6,L,0.21573170731707317,0.21688888888888888,0.2768461538461538,0.23979310344827587
8,5,10,0,8,20.190999999999985,17,97,116,109,5,3,20.556999999999984,4.208999999999997,16.774999999999988,3.9649999999999967,19,10,18,12,99,13,64,13,2,0,16,4,6,L,0.20764646464646463,0.3237692307692307,0.262109375,0.30499999999999994
9,1,1,0,2,20.312999999999985,19,102,51,59,52,54,20.983999999999984,1.7689999999999988,1.7079999999999989,0.7929999999999997,20,11,7,3,107,11,8,3,4,1,48,4,6,L,0.19611214953271028,0.1608181818181818,0.21349999999999997,0.2643333333333333
9,1,2,0,4,16.34799999999999,19,80,103,107,18,40,18.055999999999987,2.2569999999999983,0.061,2.8669999999999978,20,11,1,9,88,14,1,9,2,0,15,3.75,6,L,0.20518181818181816,0.1612142857142857,0.061,0.3185555555555555
9,2,3,0,3,23.179999999999982,19,105,36,14,15,17,23.85099999999998,9.698999999999993,0.8539999999999996,1.2809999999999993,20,17,4,2,111,43,5,2,5,0.5,41,5.75,6,L,0.21487387387387386,0.22555813953488368,0.1708,0.6404999999999996
9,2,4,0,6,24.82699999999998,20,114,2,46,9,12,34.159999999999975,0.061,0.183,3.1109999999999975,20,1,2,9,144,1,2,13,6,0.5,41,5.75,6,L,0.2372222222222222,0.061,0.0915,0.23930769230769228
9,3,5,0,8,17.384999999999987,19,83,110,111,22,14,17.994999999999987,13.48099999999999,14.639999999999988,1.0369999999999995,20,17,18,3,85,45,56,4,2,0,16,4,6,L,0.21170588235294116,0.2995777777777777,0.2614285714285714,0.25925
9,3,6,0,6,28.730999999999977,20,131,5,35,4,26,28.791999999999977,10.613999999999992,3.9649999999999967,1.646999999999999,20,17,12,4,132,39,12,5,6,0,22,5.5,6,L,0.2181212121212121,0.27215384615384614,0.3304166666666666,0.3293999999999999
9,4,7,0,9,18.604999999999986,19,97,70,66,62,2,18.970999999999986,2.0739999999999985,0.488,1.2809999999999993,20,6,4,6,98,8,4,7,4,0.5,30,4.5,6,L,0.19358163265306122,0.25925,0.122,0.183
9,4,8,0,3,27.998999999999977,20,124,27,24,14,15,30.194999999999975,6.099999999999995,10.796999999999992,7.685999999999994,20,17,15,14,137,31,46,37,5,0.5,41,5.75,6,L,0.22040145985401458,0.1967741935483871,0.2347173913043478,0.20772972972972972
9,5,9,0,2,19.702999999999985,20,99,60,59,55,96,19.763999999999985,3.842999999999997,2.622999999999998,1.8299999999999987,20,13,11,4,100,16,16,4,4,0.5,27,3.75,6,L,0.19763999999999998,0.2401875,0.16393749999999999,0.45749999999999996
9,5,10,0,4,39.64999999999997,19,171,105,81,103,45,39.77199999999997,5.245999999999996,1.0979999999999994,1.524999999999999,20,16,5,4,172,28,5,4,2,0,12,3,6,L,0.23123255813953486,0.18735714285714286,0.2196,0.38125
10,1,1,0,8,14.090999999999989,20,75,116,113,115,3,14.822999999999988,2.0739999999999985,5.123999999999996,1.1589999999999994,20,9,13,4,79,9,19,4,2,0.5,18,3,6,L,0.18763291139240507,0.23044444444444445,0.26968421052631575,0.28974999999999995
10,1,2,0,1,27.693999999999978,20,137,77,22,75,80,30.926999999999975,0.5489999999999999,0.122,2.744999999999998,20,2,1,10,153,2,1,12,3,0.5,24,3.75,6,L,0.20213725490196077,0.27449999999999997,0.122,0.22874999999999998
10,2,3,0,10,22.569999999999983,19,88,92,90,93,86,24.52199999999998,0.122,3.3549999999999973,0.305,20,2,8,3,93,2,10,3,3,1,36,3,6,L,0.2636774193548387,0.061,0.3354999999999999,0.10166666666666667
10,2,4,0,2,16.774999999999988,16,86,53,50,14,59,17.628999999999987,0.183,6.587999999999995,1.8909999999999987,20,1,13,4,92,1,30,4,4,0.5,30,4.5,6,L,0.1916195652173913,0.183,0.2196,0.4727499999999999
10,3,5,0,10,15.615999999999987,17,72,95,89,94,91,16.10399999999999,0.488,2.8669999999999978,3.9649999999999967,20,3,9,9,75,3,16,12,3,1,36,3,6,L,0.21471999999999997,0.16266666666666665,0.17918749999999997,0.33041666666666664
10,3,6,0,2,20.434999999999985,18,86,55,59,52,53,21.288999999999984,1.0369999999999995,1.524999999999999,7.563999999999994,20,3,5,16,92,3,5,43,4,1,48,4,6,L,0.23140217391304344,0.3456666666666667,0.30499999999999994,0.17590697674418604
10,4,7,0,8,19.336999999999986,19,101,111,119,70,110,24.82699999999998,5.062999999999996,4.879999999999996,0.305,20,14,14,2,122,22,26,2,2,0.5,16,2.5,6,L,0.2035,0.2301363636363636,0.18769230769230769,0.1525
10,4,8,0,4,31.048999999999975,18,163,102,98,42,108,33.671999999999976,0.244,2.805999999999998,0.061,20,1,11,1,178,1,19,1,2,0.5,17,2.75,6,L,0.18916853932584268,0.244,0.14768421052631578,0.061
10,5,9,0,10,16.530999999999988,15,75,64,92,95,118,17.689999999999987,8.112999999999994,1.2199999999999993,4.818999999999996,17,16,4,10,78,32,5,15,3,0,12,3,6,L,0.2267948717948718,0.25353125,0.244,0.3212666666666666
10,5,10,0,4,39.40599999999997,16,166,105,97,101,18,39.46699999999997,2.9889999999999977,2.0129999999999986,2.500999999999998,17,9,5,4,167,12,5,7,2,0.5,18,3,6,L,0.23632934131736524,0.24908333333333332,0.40259999999999985,0.35728571428571426
11,1,1,0,9,27.571999999999978,19,131,65,4,70,1,29.523999999999976,2.744999999999998,6.648999999999995,4.940999999999996,20,9,14,11,135,14,36,20,4,0,20,5,6,L,0.21869629629629628,0.19607142857142856,0.18469444444444444,0.24704999999999996
11,1,2,0,3,20.800999999999984,19,91,33,17,32,14,21.227999999999984,8.112999999999994,2.500999999999998,3.476999999999997,20,18,13,12,94,45,17,17,5,0,22,5.5,6,L,0.22582978723404254,0.1802888888888889,0.14711764705882352,0.20452941176470588
11,2,3,0,10,20.983999999999984,19,85,34,96,59,85,34.647999999999975,0.061,0.9759999999999995,1.463999999999999,20,1,2,5,149,1,2,6,3,0,15,3.75,6,L,0.23253691275167784,0.061,0.4879999999999998,0.244
11,2,4,0,1,12.99299999999999,20,72,81,83,80,77,13.724999999999989,2.9889999999999977,1.3419999999999992,1.8299999999999987,20,11,5,5,77,15,5,6,3,1,36,3,6,L,0.17824675324675324,0.19926666666666665,0.26839999999999997,0.30499999999999994
11,3,5,0,3,25.37599999999998,20,129,31,29,6,71,26.83999999999998,1.8909999999999987,14.029999999999989,0.6099999999999999,20,9,17,2,133,11,63,3,5,0,20,5,6,L,0.2018045112781955,0.1719090909090909,0.22269841269841267,0.20333333333333334
11,3,6,0,5,20.861999999999984,18,92,46,44,41,43,23.301999999999982,0.366,0.5489999999999999,0.8539999999999996,20,3,6,3,101,3,7,3,5,1,60,5,6,L,0.2307128712871287,0.122,0.07842857142857143,0.2846666666666666
11,4,7,0,10,15.005999999999988,20,84,89,90,2,56,16.591999999999988,0.9759999999999995,11.589999999999991,1.3419999999999992,20,2,16,6,92,2,42,6,3,0,16,4,6,L,0.18034782608695651,0.48799999999999977,0.2759523809523809,0.22366666666666662
11,4,8,0,3,45.017999999999965,16,189,13,65,84,34,76.55499999999994,0.061,1.7689999999999988,0.6709999999999998,20,1,7,3,323,1,8,3,5,0,18,4.5,6,L,0.23701238390092877,0.061,0.221125,0.22366666666666665
11,5,9,0,8,23.85099999999998,20,104,113,111,116,62,23.91199999999998,2.0129999999999986,3.3549999999999973,6.343999999999995,20,12,13,12,105,13,18,20,2,0.5,16,2.5,6,L,0.22773333333333332,0.15484615384615386,0.18638888888888888,0.3171999999999999
11,5,10,0,7,19.702999999999985,19,95,15,17,16,22,21.654999999999983,2.2569999999999983,0.5489999999999999,1.463999999999999,20,9,2,4,103,11,3,5,6,1,72,6,6,L,0.21024271844660192,0.2051818181818182,0.183,0.29279999999999995
12,1,1,0,4,15.859999999999987,20,70,4,106,102,95,38.24699999999997,0.122,0.061,0.5489999999999999,20,1,1,4,160,1,1,5,2,0,13,3.25,6,L,0.23904374999999997,0.122,0.061,0.1098
12,1,2,0,1,20.739999999999984,19,97,13,84,79,36,49.83699999999996,0.244,0.061,0.427,20,2,1,3,228,2,1,3,3,0,17,4.25,6,L,0.2185833333333333,0.122,0.061,0.14233333333333334
12,2,3,0,9,7.380999999999994,15,28,15,62,23,19,31.109999999999975,0.061,0.061,0.183,20,1,1,1,127,1,1,1,4,0.5,40,5.5,6,L,0.2449606299212598,0.061,0.061,0.183
12,2,4,0,8,21.227999999999984,19,102,119,109,116,4,22.081999999999983,3.2939999999999974,0.6099999999999999,1.0369999999999995,20,8,3,6,104,13,3,6,2,0.5,18,3,6,L,0.21232692307692305,0.2533846153846154,0.20333333333333334,0.17283333333333334
12,3,5,0,6,26.71799999999998,20,105,5,12,8,9,33.366999999999976,2.3789999999999982,2.805999999999998,3.2939999999999974,20,9,12,11,137,11,13,15,6,1,72,6,6,L,0.2435547445255474,0.21627272727272726,0.21584615384615383,0.2196
12,3,6,0,10,23.60699999999998,20,111,87,92,91,66,28.120999999999977,0.5489999999999999,1.463999999999999,3.720999999999997,20,3,6,12,129,3,6,18,3,0.5,22,3.25,6,L,0.21799224806201548,0.183,0.244,0.2067222222222222
12,4,7,0,1,27.693999999999978,18,134,82,80,79,22,28.059999999999977,3.2329999999999974,2.744999999999998,4.879999999999996,20,10,7,12,136,13,10,19,3,0.5,24,3.75,6,L,0.20632352941176468,0.24869230769230763,0.27449999999999997,0.25684210526315787
12,4,8,0,6,16.896999999999988,19,97,10,12,120,87,17.323999999999987,0.122,13.602999999999989,2.3179999999999983,20,1,17,7,102,1,55,8,6,0,17,4.25,6,L,0.16984313725490197,0.122,0.2473272727272727,0.28975
12,5,9,0,1,24.21699999999998,20,108,80,78,76,10,24.76599999999998,1.7689999999999988,3.4159999999999973,4.6969999999999965,20,8,12,14,111,10,17,24,3,0.5,24,3.75,6,L,0.2231171171171171,0.1769,0.20094117647058823,0.19570833333333332
12,5,10,0,5,10.369999999999992,19,55,45,70,113,111,19.092999999999986,12.74899999999999,8.173999999999994,0.305,20,18,18,2,107,61,45,2,5,0,13,3.25,6,L,0.17843925233644858,0.209,0.18164444444444444,0.1525
13,1,1,0,4,18.604999999999986,19,83,7,3,10,71,21.227999999999984,10.735999999999992,0.9759999999999995,0.7319999999999998,20,16,4,5,93,49,4,6,2,0.5,40,5.5,6,L,0.228258064516129,0.2191020408163265,0.244,0.122
13,1,2,0,7,27.327999999999978,19,135,21,53,52,13,29.401999999999976,4.635999999999997,2.3789999999999982,0.6709999999999998,20,15,7,3,141,21,15,4,6,0,20,5,6,L,0.20852482269503544,0.22076190476190474,0.1586,0.16775
13,2,3,0,10,21.898999999999983,19,107,89,87,94,19,23.48499999999998,1.2199999999999993,0.6099999999999999,0.9149999999999996,20,6,3,4,114,7,3,4,3,0.5,24,3.75,6,L,0.20600877192982456,0.1742857142857143,0.20333333333333334,0.22874999999999995
13,2,4,0,1,19.092999999999986,20,86,74,80,58,75,19.275999999999986,2.1959999999999984,2.561999999999998,2.744999999999998,20,10,7,13,87,13,10,18,3,0.5,22,3.25,6,L,0.2215632183908046,0.16892307692307693,0.2562,0.1525
13,3,5,0,4,25.68099999999998,19,125,16,108,101,18,29.645999999999976,2.3789999999999982,1.0369999999999995,0.7319999999999998,20,6,6,2,147,6,6,3,2,0,16,4,6,L,0.2016734693877551,0.39649999999999996,0.17283333333333334,0.24399999999999997
13,3,6,0,8,12.13899999999999,18,54,112,119,109,2,13.23699999999999,0.122,0.244,15.188999999999988,20,2,1,15,61,2,2,53,2,0.5,18,3,6,L,0.217,0.061,0.122,0.2865849056603773
13,4,7,0,2,9.576999999999993,16,47,58,59,41,53,10.735999999999992,3.903999999999997,4.330999999999997,4.086999999999997,20,8,10,13,53,11,15,20,4,0.5,29,4.25,6,L,0.20256603773584905,0.35490909090909084,0.2887333333333333,0.20435
13,4,8,0,10,25.31499999999998,18,112,4,107,6,96,52.33799999999996,1.7079999999999989,0.6709999999999998,0.366,20,6,3,4,229,8,3,4,3,0,17,4.25,6,L,0.22855021834061134,0.2135,0.22366666666666665,0.0915
13,5,9,0,7,16.652999999999988,20,80,16,15,21,57,19.641999999999985,4.208999999999997,2.805999999999998,2.3789999999999982,20,12,6,9,95,19,10,11,6,0.5,40,5.5,6,L,0.20675789473684208,0.22152631578947368,0.28059999999999996,0.21627272727272723
13,5,10,0,9,56.912999999999954,19,248,68,64,6,72,58.43799999999995,0.6709999999999998,0.488,0.7929999999999997,20,4,1,6,257,5,1,7,4,0.5,30,4.5,6,L,0.22738521400778208,0.13419999999999999,0.488,0.11328571428571428
14,1,1,0,9,22.752999999999982,20,98,67,69,66,7,24.21699999999998,3.598999999999997,2.683999999999998,2.2569999999999983,20,10,11,9,104,12,16,15,4,0.5,30,4.5,6,L,0.2328557692307692,0.2999166666666666,0.16775,0.15046666666666667
14,1,2,0,8,21.837999999999983,18,98,120,113,58,112,22.691999999999982,0.6709999999999998,5.672999999999996,3.720999999999997,20,2,10,12,101,2,17,20,2,0.5,16,2.5,6,L,0.22467326732673265,0.3354999999999999,0.33370588235294113,0.18605
14,2,3,0,6,25.43699999999998,19,124,1,6,3,106,25.68099999999998,9.698999999999993,14.761999999999988,0.7319999999999998,20,17,17,6,126,42,63,6,6,0.5,38,5,6,L,0.20381746031746031,0.23092857142857143,0.23431746031746029,0.122
14,2,4,0,1,24.03399999999998,19,103,74,80,75,29,25.07099999999998,1.2809999999999993,5.550999999999996,1.9519999999999986,20,4,14,5,108,4,20,6,3,0.5,23,3.5,6,L,0.23213888888888887,0.3202499999999999,0.27754999999999996,0.32533333333333325
14,3,5,0,1,15.310999999999988,20,71,83,80,29,68,16.713999999999988,1.0979999999999994,4.513999999999997,11.040999999999991,20,5,12,14,75,6,24,33,3,0,15,3.75,6,L,0.22285333333333332,0.183,0.18808333333333332,0.3345757575757575
14,3,6,0,2,26.22999999999998,20,139,58,56,55,24,26.53499999999998,3.4159999999999973,2.3179999999999983,1.8909999999999987,20,9,8,5,141,10,11,6,4,0.5,30,4.5,6,L,0.1881914893617021,0.34159999999999996,0.21072727272727274,0.3151666666666666
14,4,7,0,3,23.362999999999982,20,102,32,16,73,83,26.96199999999998,8.600999999999994,4.818999999999996,1.4029999999999991,20,17,14,8,113,34,23,8,5,0,17,4.25,6,L,0.2386017699115044,0.25297058823529406,0.2095217391304348,0.175375
14,4,8,0,9,35.806999999999974,19,154,67,8,63,39,36.23399999999997,6.587999999999995,2.0739999999999985,1.2199999999999993,20,17,5,6,156,34,6,6,4,0,19,4.75,6,L,0.23226923076923076,0.19376470588235292,0.3456666666666666,0.20333333333333334
14,5,9,0,7,18.116999999999987,18,86,17,19,23,44,19.153999999999986,2.0129999999999986,5.001999999999996,9.820999999999993,20,7,11,14,88,9,21,40,6,0.5,41,5.75,6,L,0.21765909090909089,0.22366666666666665,0.23819047619047615,0.245525
14,5,10,0,10,34.098999999999975,20,170,94,88,93,70,34.464999999999975,1.4029999999999991,1.7689999999999988,2.9889999999999977,20,6,7,11,171,7,8,19,3,0.5,22,3.25,6,L,0.20154970760233917,0.20042857142857143,0.22112499999999996,0.15731578947368421
15,1,1,0,4,26.77899999999998,19,122,98,103,105,76,27.876999999999978,0.6099999999999999,2.1349999999999985,5.977999999999995,20,5,7,14,126,5,9,21,2,0.5,15,2.25,6,L,0.22124603174603172,0.122,0.23722222222222217,0.2846666666666666
15,1,2,0,10,18.482999999999986,20,85,88,96,92,59,19.397999999999985,2.500999999999998,0.183,8.722999999999994,20,8,1,14,90,12,1,35,3,0.5,22,3.25,6,L,0.21553333333333333,0.20841666666666667,0.183,0.2492285714285714
15,2,3,0,8,22.996999999999982,19,107,111,114,109,118,24.52199999999998,1.2199999999999993,0.6099999999999999,0.427,20,8,3,3,113,8,3,3,2,1,24,2,6,L,0.21700884955752212,0.1525,0.20333333333333334,0.14233333333333334
15,2,4,0,4,16.16499999999999,17,73,99,102,97,96,16.40899999999999,1.4029999999999991,0.366,6.953999999999994,19,3,2,15,75,4,3,29,2,0.5,15,2.25,6,L,0.21878666666666666,0.3507499999999999,0.122,0.2397931034482758
15,3,5,0,6,20.068999999999985,20,94,1,3,10,59,22.203999999999983,3.842999999999997,7.9299999999999935,3.537999999999997,20,12,17,10,103,16,38,18,6,0.5,40,5.5,6,L,0.21557281553398058,0.2401875,0.20868421052631578,0.19655555555555554
15,3,6,0,10,19.214999999999986,19,96,86,38,13,18,36.59999999999997,0.9149999999999996,0.244,0.488,20,3,1,2,165,3,1,2,3,0,20,5,6,L,0.2218181818181818,0.305,0.244,0.244
15,4,7,0,8,13.11499999999999,18,66,115,111,114,12,25.86399999999998,1.0369999999999995,1.3419999999999992,5.367999999999996,20,5,5,11,114,5,6,15,2,0.5,18,3,6,L,0.22687719298245612,0.2074,0.22366666666666662,0.3578666666666666
15,4,8,0,7,11.83399999999999,18,53,22,15,19,21,11.89499999999999,5.7339999999999955,3.598999999999997,1.7689999999999988,19,14,10,6,54,21,16,7,6,1,72,6,6,L,0.22027777777777777,0.273047619047619,0.22493749999999996,0.2527142857142857
15,5,9,0,8,12.19999999999999,19,65,113,62,72,15,21.532999999999983,10.552999999999992,4.574999999999997,11.528999999999991,20,17,13,17,111,46,19,54,2,0,16,4,6,L,0.19399099099099099,0.22941304347826086,0.24078947368421047,0.2135
15,5,10,0,1,25.92499999999998,16,124,77,76,79,12,25.98599999999998,4.635999999999997,8.722999999999994,3.781999999999997,17,14,17,11,125,21,37,14,3,0.5,24,3.75,6,L,0.207888,0.22076190476190474,0.23575675675675675,0.27014285714285713
16,1,1,0,2,34.403999999999975,20,154,59,23,22,20,35.135999999999974,2.1959999999999984,3.2329999999999974,3.1109999999999975,20,8,11,11,162,12,14,14,4,0.5,40,5.5,6,L,0.21688888888888888,0.183,0.23092857142857143,0.2222142857142857
16,1,2,0,9,22.142999999999983,19,100,62,70,72,65,24.39999999999998,0.488,0.488,3.1109999999999975,20,2,3,10,112,2,3,13,4,1,48,4,6,L,0.21785714285714283,0.244,0.16266666666666665,0.2393076923076923
16,2,3,0,7,13.05399999999999,20,70,13,42,47,44,13.17599999999999,3.781999999999997,12.93199999999999,0.7929999999999997,20,10,15,2,71,17,53,2,6,0.5,36,5.25,6,L,0.18557746478873238,0.22247058823529411,0.24399999999999997,0.39649999999999996
16,2,4,0,9,14.151999999999989,19,76,72,90,31,70,22.874999999999982,14.151999999999989,4.086999999999997,0.366,20,17,11,2,110,58,18,2,4,0,16,4,6,L,0.20795454545454542,0.24399999999999997,0.22705555555555554,0.183
16,3,5,0,4,17.811999999999987,20,96,106,6,7,100,19.641999999999985,4.7579999999999965,4.391999999999997,0.6099999999999999,20,16,12,4,106,29,18,4,2,0,16,4,6,L,0.18530188679245282,0.16406896551724137,0.24399999999999997,0.1525
16,3,6,0,5,16.835999999999988,18,81,94,22,21,16,21.593999999999983,13.54199999999999,7.502999999999994,2.8669999999999978,20,17,16,11,101,56,32,13,5,0.5,39,5.25,6,L,0.2138019801980198,0.24182142857142855,0.23446874999999995,0.22053846153846154
16,4,7,0,7,33.061999999999976,20,164,18,13,16,21,33.732999999999976,3.0499999999999976,6.8929999999999945,2.9889999999999977,20,8,15,10,166,16,21,17,6,1,72,6,6,L,0.20321084337349396,0.190625,0.32823809523809516,0.1758235294117647
16,4,8,0,9,31.109999999999975,18,153,61,39,71,45,34.281999999999975,0.7929999999999997,2.0129999999999986,0.305,20,3,9,1,165,4,9,1,4,0,18,4.5,6,L,0.20776969696969697,0.19824999999999998,0.22366666666666662,0.305
16,5,9,0,6,14.944999999999988,20,78,25,2,58,3,23.97299999999998,7.807999999999994,0.8539999999999996,0.7319999999999998,20,16,3,4,116,35,3,4,6,0,21,5.25,6,L,0.20666379310344826,0.22308571428571428,0.2846666666666667,0.183
16,5,10,0,10,23.362999999999982,19,113,87,88,96,67,28.913999999999977,0.122,4.208999999999997,1.2809999999999993,20,1,13,5,137,1,19,5,3,0.5,22,3.25,6,L,0.21105109489051094,0.122,0.22152631578947368,0.25619999999999993
17,1,1,0,2,18.665999999999986,19,83,53,54,55,45,19.092999999999986,1.2809999999999993,4.940999999999996,2.3179999999999983,20,5,10,5,84,5,15,9,4,0.5,29,4.25,6,L,0.22729761904761903,0.2562,0.3293999999999999,0.25755555555555554
17,1,2,0,8,21.959999999999983,20,96,116,119,8,7,22.508999999999983,8.478999999999994,0.6099999999999999,11.406999999999991,20,15,2,17,99,31,2,48,2,0,16,4,6,L,0.22736363636363635,0.273516129032258,0.305,0.2376458333333333
17,2,3,0,1,19.275999999999986,20,96,83,37,74,84,23.301999999999982,0.9149999999999996,0.244,0.061,20,2,1,1,109,2,1,1,3,0.5,23,3.5,6,L,0.21377981651376146,0.4574999999999999,0.244,0.061
17,2,4,0,4,19.641999999999985,19,103,107,108,100,104,21.227999999999984,0.366,0.183,0.305,20,2,2,2,112,2,2,2,2,1,24,2,6,L,0.18953571428571428,0.183,0.0915,0.1525
17,3,5,0,4,22.691999999999982,20,113,97,87,108,46,22.935999999999982,7.258999999999994,1.463999999999999,17.140999999999988,20,9,8,16,114,18,10,74,2,0,12,3,6,L,0.20119298245614034,0.4032777777777777,0.1464,0.23163513513513512
17,3,6,0,7,21.898999999999983,20,93,21,25,22,14,24.88799999999998,1.524999999999999,0.122,7.319999999999994,20,3,1,16,109,4,1,38,6,0.5,41,5.75,6,L,0.22833027522935778,0.38124999999999987,0.122,0.1926315789473684
17,4,7,0,7,11.589999999999991,18,57,14,16,46,19,25.68099999999998,0.183,1.7079999999999989,1.7689999999999988,20,1,6,7,111,1,9,8,6,0.5,41,5.75,6,L,0.23136036036036034,0.183,0.18977777777777777,0.221125
17,4,8,0,9,32.87899999999998,18,128,67,70,68,63,33.488999999999976,0.7319999999999998,5.611999999999996,0.305,20,2,14,2,133,2,25,2,4,1,48,4,6,L,0.25179699248120296,0.366,0.22447999999999999,0.1525
17,5,9,0,2,19.763999999999985,20,109,77,110,84,15,28.97499999999998,4.879999999999996,7.380999999999994,2.622999999999998,20,16,14,7,150,29,27,10,4,0,14,3.5,6,L,0.19316666666666665,0.16827586206896553,0.2733703703703703,0.2623
17,5,10,0,9,8.539999999999994,19,47,1,8,66,64,33.793999999999976,4.513999999999997,0.061,0.488,20,15,1,4,159,24,1,4,4,0,20,5,6,L,0.21254088050314465,0.18808333333333332,0.061,0.122
18,1,1,0,8,20.800999999999984,19,90,118,113,110,116,22.020999999999983,0.305,0.305,0.8539999999999996,20,3,2,4,94,3,2,5,2,1,24,2,6,L,0.2342659574468085,0.10166666666666667,0.1525,0.1708
18,1,2,0,1,17.140999999999988,20,78,74,75,81,23,24.33899999999998,0.366,0.122,0.7929999999999997,20,2,1,3,111,2,1,3,3,0.5,24,3.75,6,L,0.21927027027027027,0.183,0.122,0.2643333333333333
18,2,3,0,1,23.362999999999982,19,108,77,75,4,5,25.37599999999998,1.0369999999999995,5.977999999999995,1.3419999999999992,20,4,12,3,119,6,23,4,3,0,18,4.5,6,L,0.21324369747899158,0.17283333333333334,0.25991304347826083,0.33549999999999996
18,2,4,0,10,24.82699999999998,20,119,96,92,90,86,25.98599999999998,0.427,0.122,4.330999999999997,20,1,1,11,130,2,1,16,3,1,36,3,6,L,0.19989230769230767,0.2135,0.122,0.27068749999999997
18,3,5,0,4,28.364999999999977,20,112,103,107,39,38,28.547999999999977,2.9279999999999977,5.184999999999996,3.2939999999999974,20,10,13,10,113,13,21,13,2,0,14,3.5,6,L,0.25263716814159287,0.22523076923076923,0.24690476190476188,0.2533846153846154
18,3,6,0,9,18.360999999999986,20,93,66,64,35,23,19.275999999999986,8.905999999999993,1.646999999999999,12.56599999999999,20,15,3,15,99,30,3,52,4,0,19,4.75,6,L,0.1947070707070707,0.2968666666666666,0.5489999999999998,0.24165384615384614
18,4,7,0,2,20.861999999999984,19,83,53,27,83,35,28.791999999999977,4.208999999999997,3.9649999999999967,6.648999999999995,20,10,8,15,117,14,11,34,4,0,17,4.25,6,L,0.24608547008547008,0.3006428571428571,0.36045454545454536,0.19555882352941176
18,4,8,0,10,12.44399999999999,19,68,89,100,12,8,21.715999999999983,5.855999999999995,8.661999999999994,3.9649999999999967,20,17,16,13,112,27,41,17,3,0,17,4.25,6,L,0.19389285714285712,0.21688888888888885,0.21126829268292682,0.23323529411764704
18,5,9,0,6,23.057999999999982,19,115,1,10,11,86,25.13199999999998,2.1349999999999985,2.561999999999998,2.622999999999998,20,10,7,6,121,10,7,9,6,0.5,39,5.25,6,L,0.20770247933884295,0.2135,0.3659999999999999,0.2914444444444444
18,5,10,0,5,46.78699999999996,18,209,24,81,74,48,82.47199999999994,0.061,0.366,0.061,20,1,3,1,353,1,3,1,5,0,17,4.25,6,L,0.23363172804532575,0.061,0.122,0.061
19,1,1,0,6,19.702999999999985,18,85,3,10,91,71,21.227999999999984,3.4159999999999973,0.9759999999999995,6.038999999999995,20,14,4,13,89,22,4,30,6,0,19,4.75,6,L,0.23851685393258426,0.15527272727272726,0.244,0.2013
19,1,2,0,5,30.133999999999975,19,129,41,44,39,20,36.66099999999997,0.061,1.1589999999999994,4.513999999999997,20,1,4,11,160,1,4,18,5,0.5,36,5.25,6,L,0.22913124999999998,0.061,0.28975,0.25077777777777777
19,2,3,0,8,23.301999999999982,20,125,113,112,96,7,23.78999999999998,2.622999999999998,1.9519999999999986,7.197999999999994,20,12,4,13,128,14,4,29,2,0,13,3.25,6,L,0.185859375,0.18735714285714286,0.4879999999999999,0.2482068965517241
19,2,4,0,9,35.623999999999974,20,155,68,62,66,23,38.00299999999997,2.8669999999999978,1.8299999999999987,8.417999999999994,20,9,6,17,164,11,7,45,4,0.5,30,4.5,6,L,0.23172560975609754,0.2606363636363636,0.2614285714285714,0.18706666666666666
19,3,5,0,4,12.19999999999999,20,66,102,16,100,17,15.371999999999987,17.445999999999987,0.427,0.488,20,19,6,2,77,65,6,2,2,0,16,4,6,L,0.1996363636363636,0.26839999999999997,0.07116666666666667,0.244
19,3,6,0,8,15.493999999999987,20,76,109,110,120,112,15.920999999999987,1.3419999999999992,1.0369999999999995,8.356999999999994,20,5,5,14,81,6,7,31,2,1,24,2,6,L,0.19655555555555554,0.22366666666666665,0.14814285714285713,0.26958064516129027
19,4,7,0,2,12.13899999999999,16,49,25,87,89,94,25.19299999999998,15.615999999999987,0.6709999999999998,0.061,20,19,3,1,109,70,3,1,4,0.5,23,3.5,6,L,0.23112844036697247,0.22308571428571428,0.22366666666666665,0.061
19,4,8,0,7,13.663999999999989,19,68,15,19,17,23,15.066999999999988,0.061,1.646999999999999,11.162999999999991,20,1,9,16,76,1,11,48,6,1,72,6,6,L,0.19824999999999998,0.061,0.14972727272727274,0.23256249999999995
19,5,9,0,9,26.22999999999998,20,118,62,70,64,69,26.96199999999998,0.6709999999999998,5.7949999999999955,1.2809999999999993,20,4,16,5,120,4,27,5,4,1,48,4,6,L,0.22468333333333332,0.16775,0.21462962962962961,0.2562
19,5,10,0,7,15.371999999999987,20,68,15,16,21,24,17.140999999999988,0.7929999999999997,1.585999999999999,3.537999999999997,20,4,8,13,76,5,8,16,6,1,72,6,6,L,0.2255394736842105,0.1586,0.19824999999999998,0.221125
20,1,1,0,2,12.80999999999999,18,68,52,55,4,49,19.580999999999985,4.269999999999997,11.650999999999991,0.122,20,15,18,1,100,20,55,1,4,0.5,30,4.5,6,L,0.19580999999999998,0.2135,0.21183636363636363,0.122
20,1,2,0,8,14.639999999999988,18,62,119,120,113,71,16.896999999999988,0.183,2.1349999999999985,0.366,20,1,5,2,69,1,9,2,2,0.5,16,2.5,6,L,0.24488405797101445,0.183,0.2372222222222222,0.183
20,2,3,0,6,19.580999999999985,19,96,12,10,4,6,26.47399999999998,0.183,0.061,0.366,20,2,1,3,125,2,1,4,6,1,72,6,6,L,0.21179199999999998,0.0915,0.061,0.0915
20,2,4,0,3,22.203999999999983,19,108,33,29,25,23,23.240999999999982,2.622999999999998,0.9149999999999996,14.761999999999988,20,9,6,17,111,11,6,60,5,0.5,36,5.25,6,L,0.20937837837837836,0.23845454545454545,0.1525,0.24603333333333333
20,3,5,0,7,16.28699999999999,20,77,13,18,23,24,22.142999999999983,2.1349999999999985,0.122,4.635999999999997,20,9,1,12,98,9,1,17,6,1,72,6,6,L,0.2259489795918367,0.23722222222222222,0.122,0.27270588235294113
20,3,6,0,2,17.384999999999987,20,91,59,56,58,4,19.336999999999986,3.1719999999999975,0.244,2.2569999999999983,20,9,1,9,97,13,1,11,4,0.5,30,4.5,6,L,0.19935051546391752,0.244,0.244,0.2051818181818182
20,4,7,0,2,15.737999999999987,19,76,58,51,57,52,18.360999999999986,3.0499999999999976,0.6709999999999998,4.7579999999999965,20,8,3,12,90,11,3,18,4,1,48,4,6,L,0.20401111111111112,0.2772727272727272,0.22366666666666665,0.2643333333333333
20,4,8,0,10,27.693999999999978,16,128,91,93,85,61,27.754999999999978,0.183,0.427,4.269999999999997,17,2,3,11,129,2,3,14,3,0.5,22,3.25,6,L,0.21515503875968991,0.0915,0.14233333333333334,0.30499999999999994
20,5,9,0,9,23.362999999999982,19,121,70,65,26,63,24.70499999999998,9.210999999999993,4.818999999999996,0.427,20,17,12,3,128,55,17,3,4,0.5,29,4.25,6,L,0.1930078125,0.16747272727272727,0.2834705882352941,0.14233333333333334
20,5,10,0,10,22.996999999999982,20,127,95,93,85,96,24.58299999999998,3.3549999999999973,0.061,4.208999999999997,20,7,1,13,140,8,1,21,3,1,36,3,6,L,0.17559285714285713,0.4193749999999999,0.061,0.20042857142857143
21,1,1,0,8,24.39999999999998,19,121,114,119,112,118,26.65699999999998,0.244,6.8929999999999945,0.244,20,2,15,2,132,2,32,2,2,1,24,2,6,L,0.20194696969696968,0.122,0.21540624999999997,0.122
21,1,2,0,4,17.689999999999987,17,79,102,108,101,105,18.116999999999987,0.7929999999999997,0.9149999999999996,0.6709999999999998,20,3,2,4,82,3,2,4,2,1,24,2,6,L,0.22093902439024388,0.2643333333333333,0.4574999999999999,0.16775
21,2,3,0,8,31.109999999999975,19,154,112,119,116,35,32.57399999999998,2.0739999999999985,0.8539999999999996,0.7319999999999998,20,10,6,2,162,11,6,2,2,0.5,17,2.75,6,L,0.20107407407407407,0.18854545454545454,0.14233333333333334,0.36599999999999994
21,2,4,0,6,13.724999999999989,13,72,9,2,6,8,20.739999999999984,0.305,0.305,6.709999999999995,20,2,4,13,93,2,4,26,6,1,72,6,6,L,0.22301075268817203,0.1525,0.07625,0.25807692307692304
21,3,5,0,9,17.567999999999987,20,70,40,19,43,74,42.39499999999997,0.183,6.526999999999995,5.428999999999996,20,1,14,14,174,1,25,31,4,0,19,4.75,6,L,0.2436494252873563,0.183,0.26108,0.1751290322580645
21,3,6,0,2,16.28699999999999,19,78,50,60,51,35,19.153999999999986,7.8689999999999936,1.8909999999999987,7.258999999999994,20,13,10,15,90,26,14,34,4,0.5,29,4.25,6,L,0.21282222222222222,0.30265384615384605,0.13507142857142856,0.2135
21,4,7,0,9,19.824999999999985,20,105,67,65,14,46,20.190999999999985,6.038999999999995,2.0739999999999985,6.587999999999995,20,12,8,14,107,16,11,22,4,0,19,4.75,6,L,0.18870093457943923,0.3774374999999999,0.18854545454545454,0.29945454545454536
21,4,8,0,8,16.16499999999999,19,76,110,115,59,120,18.604999999999986,1.2809999999999993,0.9149999999999996,1.2199999999999993,20,6,4,4,85,6,5,4,2,0.5,16,2.5,6,L,0.21888235294117644,0.21349999999999997,0.183,0.30499999999999994
21,5,9,0,7,16.957999999999988,19,80,13,67,22,15,20.861999999999984,3.4159999999999973,0.183,3.4159999999999973,20,10,1,9,93,11,1,15,6,0.5,40,5.5,6,L,0.22432258064516128,0.3105454545454545,0.183,0.22773333333333332
21,5,10,0,1,12.50499999999999,16,61,78,80,79,83,15.188999999999988,1.463999999999999,2.683999999999998,3.9649999999999967,20,8,7,12,72,8,9,19,3,1,36,3,6,L,0.21095833333333333,0.18299999999999997,0.2982222222222221,0.20868421052631578
22,1,1,0,5,18.543999999999986,20,77,10,38,49,39,23.057999999999982,8.905999999999993,1.8299999999999987,3.659999999999997,20,15,5,13,96,38,6,19,5,0,20,5,6,L,0.24018749999999997,0.2343684210526316,0.30499999999999994,0.1926315789473684
22,1,2,0,8,13.663999999999989,19,64,110,111,112,14,23.91199999999998,7.746999999999994,0.061,3.1109999999999975,20,17,1,9,111,35,1,12,2,0.5,18,3,6,L,0.2154234234234234,0.22134285714285712,0.061,0.25925
22,2,3,0,1,27.205999999999978,20,122,83,76,79,74,27.510999999999978,3.1719999999999975,1.463999999999999,2.683999999999998,20,10,6,9,125,12,9,12,3,1,36,3,6,L,0.22008799999999998,0.2643333333333333,0.16266666666666665,0.22366666666666665
22,2,4,0,8,17.567999999999987,18,84,110,112,46,17,19.885999999999985,2.1959999999999984,2.2569999999999983,13.846999999999989,20,8,9,17,96,13,12,65,2,0,15,3.75,6,L,0.2071458333333333,0.16892307692307693,0.18808333333333332,0.21303076923076922
22,3,5,0,3,16.652999999999988,20,68,13,35,30,21,24.03399999999998,0.122,1.463999999999999,4.7579999999999965,20,2,6,12,102,2,7,18,5,0,22,5.5,6,L,0.23562745098039214,0.061,0.20914285714285713,0.2643333333333333
22,3,6,0,9,21.410999999999984,20,104,61,5,72,68,21.471999999999984,4.086999999999997,0.244,1.2199999999999993,20,11,1,7,105,17,1,8,4,0.5,30,4.5,6,L,0.2044952380952381,0.2404117647058823,0.244,0.1525
22,4,7,0,10,42.45599999999997,16,170,88,86,89,95,42.57799999999997,0.6099999999999999,2.683999999999998,0.366,17,3,9,2,171,3,10,2,3,1,36,3,6,L,0.2489941520467836,0.20333333333333334,0.26839999999999997,0.183
22,4,8,0,8,25.43699999999998,20,127,115,8,39,42,28.364999999999977,6.282999999999995,3.1719999999999975,0.427,20,13,10,5,137,20,15,5,2,0,18,4.5,6,L,0.20704379562043795,0.31414999999999993,0.21146666666666666,0.0854
22,5,9,0,1,19.641999999999985,19,86,84,76,73,80,20.129999999999985,4.147999999999997,0.122,5.306999999999996,20,13,2,12,90,21,2,22,3,1,36,3,6,L,0.22366666666666662,0.1975238095238095,0.061,0.24122727272727268
22,5,10,0,4,39.71099999999997,16,174,103,107,105,108,39.95499999999997,0.488,0.122,2.500999999999998,17,4,2,9,175,4,2,14,2,1,24,2,6,L,0.2283142857142857,0.122,0.061,0.17864285714285713
23,1,1,0,8,16.34799999999999,19,80,114,109,118,26,16.957999999999988,1.0979999999999994,3.598999999999997,2.3179999999999983,20,7,10,9,85,7,14,12,2,0.5,17,2.75,6,L,0.19950588235294117,0.15685714285714286,0.25707142857142856,0.19316666666666665
23,1,2,0,4,15.005999999999988,19,66,104,1,107,3,23.85099999999998,2.622999999999998,4.7579999999999965,0.7319999999999998,20,8,14,2,101,12,26,2,2,0,16,4,6,L,0.23614851485148514,0.21858333333333332,0.183,0.366
23,2,3,0,6,28.486999999999977,19,144,5,12,4,9,28.547999999999977,9.332999999999993,1.0979999999999994,0.427,20,17,5,3,145,44,5,3,6,1,72,6,6,L,0.19688275862068963,0.21211363636363637,0.2196,0.14233333333333334
23,2,4,0,1,19.275999999999986,20,92,74,80,83,69,21.166999999999984,5.855999999999995,1.4029999999999991,2.561999999999998,20,13,5,9,104,21,5,11,3,0.5,22,3.25,6,L,0.20352884615384614,0.2788571428571428,0.2806,0.2329090909090909
23,3,5,0,10,21.044999999999984,17,97,87,85,96,27,22.691999999999982,9.515999999999993,2.2569999999999983,2.8669999999999978,20,17,9,10,103,39,14,14,3,0.5,23,3.5,6,L,0.22031067961165046,0.24399999999999997,0.1612142857142857,0.20478571428571424
23,3,6,0,1,41.11399999999997,18,171,15,45,83,81,42.08999999999997,7.502999999999994,0.061,0.061,20,15,1,1,174,35,1,1,3,0,17,4.25,6,L,0.2418965517241379,0.21437142857142855,0.061,0.061
23,4,7,0,4,19.214999999999986,19,91,100,103,107,84,21.105999999999984,3.537999999999997,6.587999999999995,10.247999999999992,20,9,14,15,100,9,22,29,2,0.5,15,2.25,6,L,0.21105999999999997,0.393111111111111,0.2994545454545454,0.3533793103448275
23,4,8,0,2,35.928999999999974,20,161,58,51,60,17,37.20999999999997,1.0979999999999994,2.8669999999999978,6.8319999999999945,20,3,12,14,164,4,15,27,4,0.5,30,4.5,6,L,0.226890243902439,0.27449999999999997,0.19113333333333332,0.253037037037037
23,5,9,0,3,20.007999999999985,20,96,87,90,99,88,39.40599999999997,4.513999999999997,0.6709999999999998,1.8909999999999987,20,13,4,6,166,19,4,10,5,0.5,20,2.75,6,L,0.23738554216867466,0.23757894736842106,0.16775,0.1891
23,5,10,0,6,25.92499999999998,18,121,8,11,9,40,25.98599999999998,0.8539999999999996,4.513999999999997,5.245999999999996,19,5,13,10,122,5,20,21,6,0.5,41,5.75,6,L,0.213,0.1708,0.22569999999999998,0.2498095238095238
24,1,1,0,1,19.153999999999986,20,100,78,73,82,2,19.519999999999985,1.4029999999999991,1.524999999999999,1.646999999999999,20,6,5,3,103,9,8,3,3,0.5,24,3.75,6,L,0.1895145631067961,0.15588888888888888,0.190625,0.5489999999999998
24,1,2,0,10,22.264999999999983,20,100,85,94,90,70,23.78999999999998,3.4159999999999973,0.183,1.7079999999999989,20,10,2,7,108,11,2,11,3,0.5,22,3.25,6,L,0.22027777777777777,0.3105454545454545,0.0915,0.15527272727272726
24,2,3,0,6,13.663999999999989,18,62,5,3,9,57,14.456999999999988,7.319999999999994,1.585999999999999,7.258999999999994,20,14,9,13,66,26,10,23,6,0.5,40,5.5,6,L,0.21904545454545454,0.28153846153846146,0.1586,0.31560869565217387
24,2,4,0,5,29.950999999999976,20,114,18,45,42,39,33.610999999999976,0.366,3.537999999999997,7.8689999999999936,20,2,10,14,122,3,13,28,5,0.5,36,5.25,6,L,0.27549999999999997,0.122,0.2721538461538461,0.2810357142857142
24,3,5,0,7,17.811999999999987,19,78,16,20,24,22,26.107999999999983,0.8539999999999996,0.366,0.122,20,3,3,2,107,3,3,2,6,1,72,6,6,L,0.244,0.28466666666666657,0.122,0.061
24,3,6,0,1,32.939999999999976,17,137,74,59,5,82,34.464999999999975,10.857999999999992,1.2809999999999993,1.1589999999999994,20,16,6,4,146,36,6,5,3,0,16,4,6,L,0.2360616438356164,0.30161111111111105,0.2135,0.2318
24,4,7,0,5,18.116999999999987,19,79,37,40,10,5,18.360999999999986,0.183,14.273999999999988,0.7929999999999997,20,2,16,3,80,2,58,3,5,0,22,5.5,6,L,0.22951249999999998,0.0915,0.24610344827586206,0.2643333333333333
24,4,8,0,7,14.212999999999989,19,73,19,18,20,101,16.957999999999988,11.284999999999991,8.783999999999994,1.4029999999999991,20,16,15,7,87,47,34,9,6,0.5,38,5,6,L,0.19491954022988506,0.24010638297872336,0.25835294117647056,0.15588888888888888
24,5,9,0,10,14.151999999999989,20,66,88,96,102,46,15.188999999999988,17.811999999999987,0.061,1.0369999999999995,20,18,1,5,70,59,1,6,3,0,13,3.25,6,L,0.21698571428571428,0.30189830508474574,0.061,0.17283333333333334
24,5,10,0,2,18.421999999999986,16,95,60,52,54,78,18.726999999999986,0.8539999999999996,5.184999999999996,6.038999999999995,20,4,11,12,99,6,17,21,4,0.5,27,3.75,6,L,0.18916161616161614,0.14233333333333334,0.30499999999999994,0.2875714285714285
25,1,1,0,3,33.305999999999976,19,156,27,34,4,91,38.42999999999997,2.683999999999998,3.1109999999999975,0.9759999999999995,20,10,12,2,179,10,16,3,5,0,19,4.75,5,L,0.2146927374301676,0.26839999999999997,0.19443749999999999,0.3253333333333333
25,1,2,0,5,20.800999999999984,20,98,44,40,83,15,23.118999999999982,1.2199999999999993,8.661999999999994,0.122,20,5,14,1,107,5,36,1,5,0,19,4.75,5,L,0.21606542056074765,0.24399999999999997,0.24061111111111108,0.122
25,2,3,0,7,23.301999999999982,20,109,19,38,18,64,23.362999999999982,6.160999999999995,7.258999999999994,0.9149999999999996,20,10,13,5,110,18,30,6,6,0,21,5.25,5,L,0.21239090909090907,0.3422777777777777,0.24196666666666664,0.1525
25,2,4,0,6,16.835999999999988,17,77,6,36,3,96,27.81599999999998,4.940999999999996,1.524999999999999,0.061,20,12,7,1,125,18,7,1,6,0,20,5,5,L,0.22252799999999998,0.27449999999999997,0.21785714285714286,0.061
25,3,5,0,1,27.08399999999998,20,121,76,26,81,59,29.279999999999976,5.306999999999996,2.3789999999999982,1.524999999999999,20,16,9,5,131,29,13,6,3,0,15,3.75,5,L,0.22351145038167936,0.183,0.183,0.25416666666666665
25,3,6,0,9,35.806999999999974,19,154,68,66,61,44,37.51499999999997,1.2199999999999993,0.061,4.330999999999997,20,4,1,12,167,4,1,21,4,0.5,29,4.25,5,L,0.22464071856287424,0.305,0.061,0.20623809523809522
25,4,7,0,4,24.39999999999998,17,121,48,63,70,80,57.034999999999954,0.8539999999999996,0.6709999999999998,0.5489999999999999,20,3,3,2,272,4,3,2,2,0,16,4,5,L,0.20968749999999997,0.2135,0.22366666666666665,0.27449999999999997
25,4,8,0,8,21.349999999999984,20,109,1,3,26,4,43.858999999999966,28.364999999999977,0.183,2.8669999999999978,20,19,1,10,200,127,2,14,2,0.5,41,5.75,5,L,0.219295,0.22334645669291336,0.0915,0.20478571428571427
26,1,1,0,3,24.15599999999998,20,106,36,16,26,20,24.52199999999998,8.417999999999994,2.2569999999999983,0.6099999999999999,20,15,9,1,108,32,14,1,5,0,22,5.5,6,L,0.22705555555555554,0.2630625,0.1612142857142857,0.6099999999999999
26,1,2,0,5,23.240999999999982,19,108,37,46,43,80,23.72899999999998,1.8299999999999987,1.7079999999999989,2.9279999999999977,20,9,4,6,110,10,7,9,5,0.5,33,4.5,6,L,0.2157181818181818,0.183,0.244,0.3253333333333333
26,2,3,0,1,12.01699999999999,18,60,80,49,21,84,19.580999999999985,16.16499999999999,0.9149999999999996,0.6099999999999999,20,19,5,5,95,66,8,6,3,0,16,4,6,L,0.2061157894736842,0.2449242424242424,0.114375,0.10166666666666667
26,2,4,0,10,22.081999999999983,19,98,89,92,3,36,22.569999999999983,0.8539999999999996,5.001999999999996,2.744999999999998,20,6,15,8,103,6,27,12,3,0,17,4.25,6,L,0.219126213592233,0.14233333333333334,0.18525925925925926,0.22874999999999998
26,3,5,0,2,18.909999999999986,20,90,54,51,49,90,22.203999999999983,0.061,0.366,14.273999999999988,20,1,2,16,105,1,2,62,4,0.5,27,3.75,6,L,0.21146666666666666,0.061,0.183,0.2302258064516129
26,3,6,0,6,25.61999999999998,19,143,6,11,7,10,27.754999999999978,1.2199999999999993,0.9149999999999996,12.19999999999999,20,5,4,16,154,5,4,51,6,1,72,6,6,L,0.1802272727272727,0.244,0.22875,0.2392156862745098
26,4,7,0,4,17.750999999999987,19,77,97,6,7,98,20.922999999999984,10.552999999999992,5.428999999999996,0.122,20,18,14,2,91,48,20,2,2,0,16,4,6,L,0.2299230769230769,0.21985416666666666,0.2714499999999999,0.061
26,4,8,0,8,35.501999999999974,20,133,112,118,117,119,37.45399999999997,0.488,2.9279999999999977,8.417999999999994,20,3,8,15,138,3,11,30,2,1,24,2,6,L,0.27140579710144924,0.16266666666666665,0.26618181818181813,0.28059999999999996
26,5,9,0,5,17.689999999999987,15,79,42,39,37,11,17.750999999999987,3.842999999999997,6.770999999999995,11.345999999999991,16,12,15,16,80,14,27,57,5,0.5,36,5.25,6,L,0.2218875,0.27449999999999997,0.25077777777777777,0.19905263157894737
26,5,10,0,1,34.708999999999975,19,143,79,53,77,26,35.013999999999974,2.9279999999999977,0.9149999999999996,7.136999999999994,20,7,4,15,145,11,4,32,3,0,15,3.75,6,L,0.24147586206896549,0.2661818181818182,0.22875,0.22303125
27,1,1,0,8,22.325999999999983,20,107,117,118,113,36,22.691999999999982,1.8299999999999987,1.0369999999999995,4.147999999999997,20,7,4,9,109,9,4,14,2,0.5,17,2.75,6,L,0.20818348623853208,0.2033333333333333,0.25925,0.2962857142857142
27,1,2,0,2,29.401999999999976,17,127,59,54,53,55,31.109999999999975,0.7929999999999997,1.1589999999999994,3.2939999999999974,20,4,8,15,136,4,9,21,4,1,48,4,6,L,0.22874999999999998,0.19824999999999998,0.12877777777777777,0.15685714285714286
27,2,3,0,7,18.360999999999986,18,76,18,23,91,15,23.72899999999998,2.744999999999998,4.452999999999997,0.7929999999999997,20,10,10,3,99,12,16,3,6,0.5,39,5.25,6,L,0.23968686868686867,0.22874999999999998,0.2783124999999999,0.2643333333333333
27,2,4,0,6,17.689999999999987,16,89,3,5,4,31,21.471999999999984,1.646999999999999,0.8539999999999996,5.245999999999996,20,8,5,13,104,11,6,25,6,0.5,41,5.75,6,L,0.20646153846153845,0.14972727272727274,0.14233333333333334,0.20984
27,3,5,0,9,16.896999999999988,18,85,63,61,69,21,17.140999999999988,3.537999999999997,0.488,10.491999999999992,19,9,2,16,86,14,2,44,4,0.5,30,4.5,6,L,0.19931395348837208,0.25271428571428567,0.244,0.23845454545454542
27,3,6,0,2,10.064999999999992,17,44,54,55,56,96,22.508999999999983,0.183,0.9759999999999995,0.366,20,2,3,2,98,2,4,2,4,0.5,27,3.75,6,L,0.22968367346938773,0.0915,0.244,0.183
27,4,7,0,9,8.356999999999994,17,46,64,69,68,71,11.040999999999991,0.6709999999999998,1.4029999999999991,4.330999999999997,20,3,5,14,57,3,5,22,4,1,48,4,6,L,0.1937017543859649,0.22366666666666665,0.2806,0.19686363636363635
27,4,8,0,2,34.525999999999975,18,130,53,51,58,52,41.05299999999997,0.6709999999999998,0.488,5.123999999999996,20,2,4,14,150,2,4,26,4,1,48,4,6,L,0.27368666666666663,0.33549999999999996,0.122,0.19707692307692307
27,5,9,0,10,20.373999999999985,20,113,90,86,96,95,20.678999999999984,1.3419999999999992,7.014999999999994,1.0369999999999995,20,6,14,4,116,7,27,5,3,1,36,3,6,L,0.17826724137931033,0.1917142857142857,0.2598148148148148,0.2074
27,5,10,0,9,20.617999999999984,20,95,61,19,13,31,21.715999999999983,14.456999999999988,29.889999999999976,0.8539999999999996,20,18,18,4,101,74,115,4,4,0,21,5.25,6,L,0.21500990099009898,0.19536486486486485,0.25991304347826083,0.21349999999999997
28,1,1,0,4,17.567999999999987,18,86,105,67,98,104,23.54599999999998,20.617999999999984,0.305,0.061,20,19,2,1,117,81,2,1,2,0.5,16,2.5,6,L,0.20124786324786323,0.25454320987654316,0.1525,0.061
28,1,2,0,8,12.44399999999999,17,56,118,120,117,113,14.700999999999988,0.9759999999999995,2.683999999999998,1.1589999999999994,20,4,11,6,66,6,14,8,2,1,24,2,6,L,0.22274242424242421,0.16266666666666665,0.19171428571428567,0.144875
28,2,3,0,5,12.74899999999999,15,55,43,48,4,46,16.957999999999988,2.622999999999998,8.234999999999994,2.805999999999998,20,11,18,8,71,15,41,10,5,0.5,36,5.25,6,L,0.2388450704225352,0.17486666666666664,0.20085365853658535,0.2805999999999999
28,2,4,0,1,33.854999999999976,19,144,77,84,76,17,34.952999999999975,0.122,2.561999999999998,2.0739999999999985,20,1,7,10,150,1,9,12,3,0.5,24,3.75,6,L,0.23301999999999998,0.122,0.2846666666666666,0.1728333333333333
28,3,5,0,8,18.421999999999986,16,90,111,119,9,3,19.092999999999986,0.305,14.639999999999988,3.1109999999999975,19,3,16,12,93,3,60,15,2,0,16,4,6,L,0.2053010752688172,0.10166666666666667,0.24399999999999997,0.2074
28,3,6,0,7,12.19999999999999,19,65,13,18,21,23,12.93199999999999,0.183,5.428999999999996,1.7079999999999989,20,1,14,5,69,1,22,6,6,1,72,6,6,L,0.18742028985507245,0.183,0.24677272727272725,0.2846666666666666
28,4,7,0,10,15.676999999999987,20,85,92,89,8,70,18.421999999999986,4.818999999999996,14.761999999999988,8.051999999999994,20,10,18,14,94,13,67,35,3,0,16,4,6,L,0.1959787234042553,0.37069230769230765,0.22032835820895522,0.23005714285714285
28,4,8,0,3,16.530999999999988,16,74,30,31,26,19,18.665999999999986,4.330999999999997,0.8539999999999996,11.467999999999991,20,12,3,13,83,18,3,50,5,0.5,36,5.25,6,L,0.2248915662650602,0.2406111111111111,0.2846666666666667,0.22935999999999998
28,5,9,0,5,54.04599999999996,19,226,38,48,41,69,56.302999999999955,0.061,6.099999999999995,2.744999999999998,20,1,15,11,236,1,21,15,5,0.5,34,4.75,6,L,0.23857203389830506,0.061,0.29047619047619044,0.183
28,5,10,0,2,18.604999999999986,18,90,57,59,1,52,25.61999999999998,6.953999999999994,6.160999999999995,0.8539999999999996,20,16,12,7,121,27,21,8,4,0.5,30,4.5,6,L,0.21173553719008262,0.2575555555555555,0.2933809523809523,0.10675
29,1,1,0,8,25.31499999999998,19,101,113,112,110,109,25.61999999999998,0.7929999999999997,0.8539999999999996,5.916999999999995,20,3,5,12,104,3,5,25,2,1,24,2,6,L,0.24634615384615383,0.2643333333333333,0.1708,0.23668
29,1,2,0,4,22.142999999999983,19,103,103,98,99,105,22.264999999999983,1.3419999999999992,5.7339999999999955,1.2809999999999993,20,3,14,6,104,5,24,6,2,1,24,2,6,L,0.21408653846153844,0.26839999999999997,0.23891666666666664,0.2135
29,2,3,0,7,20.373999999999985,19,97,22,21,79,13,22.752999999999982,8.539999999999994,5.855999999999995,0.305,20,16,14,2,108,35,28,2,6,0.5,39,5.25,6,L,0.2106759259259259,0.24399999999999997,0.20914285714285713,0.1525
29,2,4,0,9,17.506999999999987,17,81,70,67,1,11,18.116999999999987,0.9759999999999995,8.051999999999994,0.8539999999999996,20,5,14,4,84,5,35,5,4,0,20,5,6,L,0.21567857142857141,0.19519999999999998,0.23005714285714282,0.1708
29,3,5,0,5,25.49799999999998,20,107,38,47,40,50,26.83999999999998,3.0499999999999976,2.1959999999999984,16.835999999999988,20,12,9,16,111,21,11,71,5,0.5,34,4.75,6,L,0.24180180180180177,0.14523809523809522,0.19963636363636364,0.23712676056338025
29,3,6,0,3,19.458999999999985,19,108,5,25,71,27,36.41699999999997,2.3179999999999983,4.025999999999997,0.061,20,9,10,1,178,14,16,1,5,0,20,5,6,L,0.2045898876404494,0.16557142857142856,0.251625,0.061
29,4,7,0,8,16.04299999999999,19,74,109,3,117,118,17.872999999999987,17.872999999999987,0.061,0.122,20,19,1,2,83,75,1,2,2,0.5,18,3,6,L,0.21533734939759033,0.23830666666666664,0.061,0.061
29,4,8,0,10,11.589999999999991,19,49,85,95,91,70,12.80999999999999,0.9149999999999996,4.574999999999997,6.8929999999999945,20,2,11,15,55,2,17,36,3,0.5,22,3.25,6,L,0.2329090909090909,0.4574999999999998,0.2691176470588235,0.1914722222222222
29,5,9,0,6,16.16499999999999,19,65,2,11,7,116,16.652999999999988,2.1959999999999984,3.659999999999997,12.93199999999999,20,8,6,16,68,10,10,48,6,0.5,38,5,6,L,0.24489705882352938,0.2196,0.3659999999999999,0.26941666666666664
29,5,10,0,4,17.689999999999987,18,79,99,100,23,74,21.166999999999984,6.709999999999995,1.8909999999999987,1.524999999999999,20,15,4,6,93,21,4,7,2,0,13,3.25,6,L,0.22760215053763438,0.3195238095238095,0.47274999999999995,0.21785714285714283
30,1,1,0,10,28.059999999999977,20,145,85,86,91,49,31.414999999999974,0.6099999999999999,6.465999999999995,1.7079999999999989,20,4,15,6,162,5,26,11,3,0.5,22,3.25,6,L,0.19391975308641973,0.122,0.24869230769230766,0.15527272727272726
30,1,2,0,4,12.38299999999999,17,63,100,4,108,97,13.29799999999999,3.2939999999999974,1.585999999999999,4.574999999999997,20,7,4,11,67,9,5,23,2,0.5,18,3,6,L,0.1984776119402985,0.36599999999999994,0.3171999999999999,0.19891304347826086
30,2,3,0,7,17.445999999999987,19,73,14,16,17,69,17.994999999999987,6.038999999999995,2.9279999999999977,6.587999999999995,20,17,7,15,75,31,10,34,6,0.5,40,5.5,6,L,0.2399333333333333,0.19480645161290322,0.29279999999999995,0.19376470588235292
30,2,4,0,3,16.591999999999988,18,87,3,26,5,36,32.87899999999998,0.183,1.585999999999999,2.1959999999999984,20,2,7,8,167,2,7,10,5,0,22,5.5,6,L,0.19688023952095807,0.0915,0.22657142857142856,0.2196
30,3,5,0,3,31.597999999999974,20,129,26,21,13,61,35.562999999999974,11.345999999999991,3.2329999999999974,4.818999999999996,20,15,9,10,149,47,12,15,5,0,21,5.25,6,L,0.23867785234899325,0.2414042553191489,0.26941666666666664,0.3212666666666666
30,3,6,0,2,16.469999999999988,20,78,55,59,54,58,16.774999999999988,0.122,0.6709999999999998,8.356999999999994,20,1,3,14,79,2,4,30,4,1,48,4,6,L,0.21234177215189873,0.061,0.16775,0.27856666666666663
30,4,7,0,6,28.486999999999977,20,117,10,32,12,98,28.547999999999977,2.9889999999999977,3.4159999999999973,3.537999999999997,20,7,13,12,118,7,23,17,6,0,19,4.75,6,L,0.24193220338983049,0.42699999999999994,0.14852173913043476,0.20811764705882352
30,4,8,0,7,29.706999999999976,18,134,22,24,14,64,30.438999999999975,0.6709999999999998,0.7319999999999998,9.454999999999993,20,2,3,15,138,3,4,37,6,0.5,40,5.5,6,L,0.22057246376811593,0.22366666666666665,0.183,0.25554054054054054
30,5,9,0,7,14.090999999999989,19,74,14,20,22,24,14.151999999999989,7.075999999999994,5.306999999999996,1.524999999999999,20,13,13,5,75,31,21,6,6,1,72,6,6,L,0.18869333333333332,0.22825806451612898,0.2527142857142857,0.25416666666666665
30,5,10,0,3,23.301999999999982,19,121,1,36,7,106,53.25299999999996,0.5489999999999999,1.4029999999999991,0.244,20,4,7,2,234,4,7,2,5,0,19,4.75,6,L,0.22757692307692304,0.13724999999999998,0.20042857142857143,0.122
31,1,1,0,1,15.737999999999987,17,61,77,83,78,80,17.079999999999988,2.805999999999998,6.953999999999994,5.7949999999999955,20,9,17,15,69,10,34,25,3,1,36,3,6,L,0.24753623188405796,0.28059999999999996,0.20452941176470585,0.23179999999999998
31,1,2,0,4,15.066999999999988,20,90,99,101,100,36,16.28699999999999,0.244,8.661999999999994,1.1589999999999994,20,3,15,5,95,3,39,7,2,0.5,17,2.75,6,L,0.1714421052631579,0.08133333333333333,0.2221025641025641,0.16557142857142856
31,2,3,0,10,22.874999999999982,17,109,94,90,87,23,23.60699999999998,1.1589999999999994,3.598999999999997,2.683999999999998,20,7,10,11,114,7,15,17,3,0.5,24,3.75,6,L,0.20707894736842103,0.16557142857142856,0.2399333333333333,0.15788235294117645
31,2,4,0,6,14.029999999999989,18,62,4,11,12,118,21.837999999999983,0.122,0.183,3.903999999999997,20,1,1,9,94,1,1,11,6,0.5,38,5,6,L,0.2323191489361702,0.122,0.183,0.35490909090909084
31,3,5,0,5,22.203999999999983,20,99,38,37,116,8,22.447999999999983,0.6099999999999999,7.563999999999994,2.1349999999999985,20,3,16,7,101,3,30,8,5,0,18,4.5,6,L,0.22225742574257423,0.20333333333333334,0.2521333333333333,0.266875
31,3,6,0,3,31.536999999999974,19,134,88,59,33,28,34.586999999999975,1.8299999999999987,0.7319999999999998,0.061,20,6,3,1,145,8,3,1,5,0,17,4.25,6,L,0.23853103448275859,0.22875,0.244,0.061
31,4,7,0,5,21.044999999999984,15,98,37,38,19,15,23.362999999999982,0.7319999999999998,7.014999999999994,14.761999999999988,20,5,14,17,107,5,29,67,5,0,22,5.5,6,L,0.21834579439252336,0.1464,0.2418965517241379,0.22032835820895522
31,4,8,0,3,31.658999999999974,18,145,32,29,11,1,33.976999999999975,0.427,8.844999999999994,4.574999999999997,20,2,17,13,156,2,45,23,5,0,22,5.5,6,L,0.21780128205128202,0.2135,0.19655555555555554,0.19891304347826086
31,5,9,0,3,42.63899999999997,20,183,28,36,32,57,42.76099999999997,1.463999999999999,1.2199999999999993,2.3179999999999983,20,7,5,8,184,8,6,10,5,0.5,34,4.75,6,L,0.23239673913043477,0.183,0.20333333333333334,0.23179999999999998
31,5,10,0,9,40.93099999999997,16,173,67,61,69,63,41.05299999999997,1.2809999999999993,1.1589999999999994,3.4159999999999973,17,6,5,10,174,8,6,17,4,1,48,4,6,L,0.23593678160919537,0.160125,0.19316666666666665,0.2009411764705882
32,1,1,0,1,18.848999999999986,19,93,75,84,78,2,21.410999999999984,1.0369999999999995,0.183,2.622999999999998,20,3,1,6,101,3,1,8,3,0.5,24,3.75,6,L,0.21199009900990096,0.3456666666666666,0.183,0.32787499999999997
32,1,2,0,9,34.403999999999975,20,145,68,18,67,64,34.769999999999975,4.818999999999996,0.244,0.5489999999999999,20,14,2,4,146,21,2,4,4,0.5,30,4.5,6,L,0.23815068493150682,0.22947619047619044,0.122,0.13724999999999998
32,2,3,0,5,38.55199999999997,20,148,46,63,48,18,42.21199999999997,5.611999999999996,0.061,2.1959999999999984,20,16,1,8,163,31,1,8,5,0,20,5,6,L,0.25896932515337423,0.18103225806451612,0.061,0.27449999999999997
32,2,4,0,1,13.907999999999989,18,85,75,77,79,1,15.859999999999987,1.1589999999999994,6.038999999999995,0.244,20,4,14,3,95,4,25,3,3,0.5,24,3.75,6,L,0.16694736842105262,0.28975,0.24155999999999997,0.08133333333333333
32,3,5,0,7,15.981999999999987,18,100,13,21,95,16,16.04299999999999,5.550999999999996,8.478999999999994,3.0499999999999976,19,13,15,11,101,20,39,16,6,0.5,39,5.25,6,L,0.15884158415841584,0.27754999999999996,0.21741025641025638,0.190625
32,3,6,0,4,24.21699999999998,19,103,108,106,105,55,24.70499999999998,2.9889999999999977,0.366,3.476999999999997,20,12,4,9,106,17,5,13,2,0.5,16,2.5,6,L,0.23306603773584902,0.1758235294117647,0.0732,0.2674615384615384
32,4,7,0,6,16.774999999999988,20,85,8,3,4,9,18.726999999999986,2.500999999999998,9.149999999999993,3.903999999999997,20,12,17,14,92,13,41,21,6,1,72,6,6,L,0.20355434782608695,0.19238461538461538,0.22317073170731705,0.1859047619047619
32,4,8,0,4,20.556999999999984,17,95,98,97,102,105,21.837999999999983,2.1349999999999985,1.2809999999999993,0.061,20,6,6,1,100,8,6,1,2,1,24,2,6,L,0.21838,0.266875,0.2135,0.061
32,5,9,0,8,16.16499999999999,19,75,110,115,112,56,17.506999999999987,0.244,0.183,22.935999999999982,20,1,1,17,80,1,1,83,2,0.5,16,2.5,6,L,0.2188375,0.244,0.183,0.2763373493975903
32,5,10,0,4,22.752999999999982,20,108,101,107,99,102,23.42399999999998,0.488,4.574999999999997,3.9649999999999967,20,2,13,11,115,2,19,15,2,1,24,2,6,L,0.20368695652173913,0.244,0.24078947368421047,0.2643333333333333
33,1,1,0,8,20.190999999999985,19,87,119,116,78,111,23.54599999999998,6.587999999999995,3.2329999999999974,0.9149999999999996,20,14,11,3,98,37,14,3,2,0.5,15,2.25,6,L,0.24026530612244895,0.17805405405405406,0.2309285714285714,0.30499999999999994
33,1,2,0,3,29.035999999999976,19,121,26,16,15,25,31.780999999999974,5.001999999999996,8.051999999999994,0.6709999999999998,20,13,17,6,134,22,39,6,5,0,22,5.5,6,L,0.23717164179104475,0.22736363636363635,0.20646153846153845,0.11183333333333333
33,2,3,0,8,12.26099999999999,18,64,120,116,3,7,12.87099999999999,0.061,27.998999999999977,0.061,20,1,16,1,68,1,105,1,2,0,16,4,6,L,0.18927941176470586,0.061,0.2666571428571428,0.061
33,2,4,0,5,20.068999999999985,20,101,42,18,16,47,20.922999999999984,4.330999999999997,10.369999999999992,0.9759999999999995,20,13,16,7,105,18,47,8,5,0,22,5.5,6,L,0.19926666666666665,0.2406111111111111,0.2206382978723404,0.122
33,3,5,0,9,23.66799999999998,20,111,71,64,65,113,24.64399999999998,1.524999999999999,6.282999999999995,1.3419999999999992,20,8,16,4,117,8,26,4,4,0.5,26,3.5,6,L,0.2106324786324786,0.190625,0.24165384615384614,0.3354999999999999
33,3,6,0,1,18.604999999999986,20,84,78,13,81,74,18.970999999999986,5.550999999999996,1.2809999999999993,0.061,20,17,6,1,89,27,7,1,3,0.5,24,3.75,6,L,0.2131573033707865,0.20559259259259255,0.183,0.061
33,4,7,0,7,15.737999999999987,20,79,13,19,20,23,17.445999999999987,0.8539999999999996,3.781999999999997,4.7579999999999965,20,2,11,13,86,2,16,21,6,1,72,6,6,L,0.20286046511627906,0.4269999999999999,0.236375,0.22657142857142853
33,4,8,0,4,27.815999999999978,19,131,108,29,4,5,28.242999999999977,3.659999999999997,6.8319999999999945,0.9149999999999996,20,8,14,2,135,13,37,2,2,0,19,4.75,6,L,0.2092074074074074,0.28153846153846146,0.18464864864864863,0.45749999999999996
33,5,9,0,1,35.196999999999974,19,149,73,78,25,11,36.23399999999997,0.6709999999999998,2.561999999999998,9.210999999999993,20,4,10,17,153,5,12,39,3,0,17,4.25,6,L,0.23682352941176468,0.13419999999999999,0.2135,0.23617948717948717
33,5,10,0,7,13.785999999999989,20,71,18,23,22,24,17.750999999999987,1.0979999999999994,0.8539999999999996,1.524999999999999,20,4,6,7,89,4,6,7,6,1,72,6,6,L,0.19944943820224717,0.27449999999999997,0.14233333333333334,0.21785714285714286
34,1,1,0,8,21.410999999999984,20,96,113,109,37,21,21.776999999999983,1.8299999999999987,3.2329999999999974,5.001999999999996,20,5,7,12,99,5,15,17,2,0,15,3.75,6,L,0.21996969696969695,0.36599999999999994,0.21553333333333333,0.29423529411764704
34,1,2,0,10,12.32199999999999,19,54,2,5,52,85,20.800999999999984,8.295999999999994,0.122,0.122,20,16,1,1,96,36,1,1,3,0,19,4.75,6,L,0.21667708333333333,0.23044444444444442,0.122,0.122
34,2,3,0,8,13.968999999999989,19,64,117,120,114,3,14.090999999999989,4.269999999999997,0.305,9.576999999999993,20,16,2,14,66,24,2,44,2,0.5,18,3,6,L,0.2135,0.17791666666666667,0.1525,0.21765909090909089
34,2,4,0,9,15.981999999999987,20,81,14,63,15,68,34.098999999999975,0.244,0.9149999999999996,0.366,20,2,4,2,153,2,4,2,4,0,20,5,6,L,0.22286928104575163,0.122,0.22874999999999995,0.183
34,3,5,0,4,40.99199999999997,18,177,107,103,101,105,41.84599999999997,1.524999999999999,3.0499999999999976,0.366,20,4,13,3,184,6,15,3,2,1,24,2,6,L,0.22742391304347825,0.25416666666666665,0.20333333333333334,0.122
34,3,6,0,8,16.713999999999988,18,77,14,15,43,39,23.118999999999982,9.210999999999993,0.5489999999999999,3.659999999999997,20,18,3,6,101,38,3,10,2,0,22,5.5,6,L,0.22890099009900988,0.24239473684210525,0.183,0.36599999999999994
34,4,7,0,2,32.32999999999998,20,144,55,54,73,18,32.39099999999998,4.147999999999997,5.611999999999996,5.672999999999996,20,9,14,13,145,14,26,22,4,0,17,4.25,6,L,0.2233862068965517,0.29628571428571426,0.21584615384615383,0.25786363636363635
34,4,8,0,3,36.35599999999997,18,166,34,35,31,66,37.27099999999997,0.488,5.7949999999999955,1.9519999999999986,20,3,15,6,170,3,30,8,5,0.5,34,4.75,6,L,0.21924117647058822,0.16266666666666665,0.19316666666666665,0.244
34,5,9,0,10,33.244999999999976,20,157,92,96,89,66,34.830999999999975,3.2329999999999974,0.122,9.027999999999993,20,10,2,16,165,19,2,42,3,0.5,22,3.25,6,L,0.21109696969696967,0.1701578947368421,0.061,0.21495238095238092
34,5,10,0,5,12.26099999999999,19,60,38,40,39,47,14.883999999999988,1.0369999999999995,1.1589999999999994,5.672999999999996,20,4,2,11,79,5,2,21,5,1,60,5,6,L,0.18840506329113924,0.20739999999999997,0.5794999999999997,0.27014285714285713
35,1,1,0,10,14.883999999999988,20,75,94,33,96,91,20.800999999999984,1.646999999999999,1.0979999999999994,0.6709999999999998,20,3,3,3,107,4,3,4,3,0.5,23,3.5,6,L,0.1944018691588785,0.41174999999999995,0.366,0.16775
35,1,2,0,8,20.495999999999984,20,99,111,114,117,109,21.959999999999983,1.646999999999999,0.122,0.183,20,6,2,2,106,8,2,2,2,1,24,2,6,L,0.2071698113207547,0.205875,0.061,0.0915
35,2,3,0,9,17.018999999999988,20,88,68,69,8,45,17.872999999999987,2.0739999999999985,3.0499999999999976,10.064999999999992,20,9,8,17,93,12,10,41,4,0,19,4.75,6,L,0.1921827956989247,0.17283333333333334,0.30499999999999994,0.24548780487804875
35,2,4,0,1,17.811999999999987,18,80,79,13,58,35,30.68299999999998,0.366,0.488,1.1589999999999994,20,2,4,3,138,2,4,4,3,0,18,4.5,6,L,0.2223405797101449,0.183,0.122,0.28974999999999995
35,3,5,0,10,15.615999999999987,20,72,88,14,87,47,17.018999999999988,15.005999999999988,1.7079999999999989,0.6099999999999999,20,15,9,4,76,61,10,4,3,0,17,4.25,6,L,0.22393421052631576,0.24599999999999997,0.1708,0.1525
35,3,6,0,4,25.13199999999998,20,118,107,101,97,35,25.25399999999998,0.7319999999999998,3.1109999999999975,7.014999999999994,20,3,9,15,120,3,17,35,2,0.5,17,2.75,6,L,0.21044999999999997,0.244,0.183,0.20042857142857143
35,4,7,0,3,21.044999999999984,20,98,34,88,30,22,21.532999999999983,4.147999999999997,0.488,1.3419999999999992,20,15,3,7,102,25,4,9,5,0,19,4.75,6,L,0.2111078431372549,0.16591999999999998,0.122,0.1491111111111111
35,4,8,0,5,20.007999999999985,19,97,48,46,61,69,27.510999999999978,5.062999999999996,3.1109999999999975,3.1719999999999975,20,14,8,13,126,19,11,17,5,0,18,4.5,6,L,0.21834126984126984,0.26647368421052625,0.28281818181818175,0.1865882352941176
35,5,9,0,1,14.517999999999988,20,68,75,13,77,76,15.371999999999987,19.214999999999986,0.122,0.061,20,19,1,1,74,79,1,1,3,0.5,24,3.75,6,L,0.20772972972972972,0.2432278481012658,0.122,0.061
35,5,10,0,8,23.057999999999982,20,109,116,115,70,9,26.65699999999998,1.9519999999999986,2.439999999999998,5.672999999999996,20,12,9,11,125,16,11,20,2,0,14,3.5,6,L,0.21325599999999997,0.122,0.2218181818181818,0.28364999999999996
36,1,1,0,1,21.898999999999983,20,91,74,84,79,83,22.874999999999982,0.5489999999999999,2.0129999999999986,0.8539999999999996,20,4,8,5,97,4,11,5,3,1,36,3,6,L,0.2358247422680412,0.13724999999999998,0.183,0.1708
36,1,2,0,6,26.59599999999998,20,132,11,7,85,38,26.65699999999998,13.907999999999989,0.488,0.122,20,19,2,1,133,59,2,1,6,0,20,5,6,L,0.2004285714285714,0.23572881355932201,0.244,0.122
36,2,3,0,1,30.133999999999975,20,142,83,81,77,78,30.926999999999975,0.122,1.0369999999999995,1.524999999999999,20,1,3,3,145,1,3,4,3,1,36,3,6,L,0.21328965517241377,0.122,0.3456666666666667,0.38125
36,2,4,0,7,39.34499999999997,19,169,15,20,19,85,39.40599999999997,3.0499999999999976,0.122,6.160999999999995,20,12,1,15,170,19,1,29,6,0.5,39,5.25,6,L,0.23179999999999998,0.16052631578947368,0.122,0.21244827586206894
36,3,5,0,2,34.891999999999975,19,136,55,53,52,46,35.440999999999974,0.6099999999999999,2.744999999999998,5.001999999999996,20,3,8,13,140,3,9,21,4,0.5,29,4.25,6,L,0.25315,0.20333333333333334,0.30499999999999994,0.23819047619047617
36,3,6,0,8,29.828999999999976,20,127,119,113,28,7,30.011999999999976,0.366,4.330999999999997,9.027999999999993,20,2,12,17,128,2,17,36,2,0,15,3.75,6,L,0.23446874999999998,0.183,0.2547647058823529,0.25077777777777777
36,4,7,0,7,13.11499999999999,18,72,14,86,15,21,17.445999999999987,3.598999999999997,3.659999999999997,0.061,20,13,8,1,92,16,12,1,6,0.5,39,5.25,6,L,0.1896304347826087,0.22493749999999998,0.30499999999999994,0.061
36,4,8,0,6,15.737999999999987,17,75,3,11,12,38,16.10399999999999,0.427,7.8689999999999936,13.968999999999989,20,4,14,16,78,4,34,66,6,0.5,41,5.75,6,L,0.20646153846153845,0.10675,0.2314411764705882,0.21165151515151515
36,5,9,0,7,23.301999999999982,20,103,14,23,22,24,24.70499999999998,1.1589999999999994,5.001999999999996,0.7929999999999997,20,6,13,7,109,7,24,7,6,1,72,6,6,L,0.22665137614678896,0.16557142857142856,0.20841666666666664,0.11328571428571428
36,5,10,0,3,15.249999999999988,18,79,29,26,8,27,17.750999999999987,0.061,3.659999999999997,3.659999999999997,20,1,12,10,86,1,16,15,5,0.5,36,5.25,6,L,0.20640697674418604,0.061,0.22874999999999995,0.244
37,1,1,0,9,21.715999999999983,20,88,62,72,63,69,23.78999999999998,0.427,1.646999999999999,5.611999999999996,20,2,5,14,96,2,5,26,4,1,48,4,6,L,0.2478125,0.2135,0.3293999999999999,0.21584615384615383
37,1,2,0,8,15.432999999999987,20,64,109,117,112,119,16.10399999999999,0.7929999999999997,0.9759999999999995,3.1719999999999975,20,6,5,10,68,6,5,17,2,1,24,2,6,L,0.23682352941176468,0.13216666666666665,0.19519999999999998,0.18658823529411764
37,2,3,0,10,31.048999999999975,20,148,93,88,96,69,32.51299999999998,2.805999999999998,1.585999999999999,3.537999999999997,20,6,6,12,156,7,6,20,3,0.5,22,3.25,6,L,0.20841666666666664,0.4008571428571428,0.2643333333333333,0.17689999999999997
37,2,4,0,1,27.388999999999978,20,138,80,74,59,9,27.571999999999978,1.0369999999999995,4.574999999999997,5.062999999999996,20,7,11,13,139,7,19,19,3,0,16,4,6,L,0.1983597122302158,0.14814285714285713,0.2407894736842105,0.26647368421052625
37,3,5,0,7,14.151999999999989,18,78,13,49,18,21,17.750999999999987,5.184999999999996,2.0129999999999986,0.305,20,13,13,3,91,22,13,3,6,0.5,40,5.5,6,L,0.19506593406593406,0.23568181818181816,0.15484615384615386,0.10166666666666667
37,3,6,0,9,18.482999999999986,20,104,64,72,61,63,19.214999999999986,3.3549999999999973,1.463999999999999,4.086999999999997,20,12,7,11,110,16,10,17,4,1,48,4,6,L,0.17468181818181816,0.2096875,0.1464,0.24041176470588235
37,4,7,0,6,14.029999999999989,15,63,3,4,7,9,14.090999999999989,15.066999999999988,2.8669999999999978,1.7079999999999989,16,18,11,8,64,79,15,10,6,1,72,6,6,L,0.220171875,0.19072151898734177,0.19113333333333332,0.1708
37,4,8,0,7,22.691999999999982,20,121,23,16,18,81,25.43699999999998,0.366,1.8299999999999987,2.805999999999998,20,2,4,7,134,2,7,12,6,0.5,39,5.25,6,L,0.18982835820895522,0.183,0.2614285714285714,0.23383333333333334
37,5,9,0,6,17.689999999999987,17,77,9,1,5,7,18.238999999999987,6.099999999999995,14.822999999999988,0.305,20,15,18,2,81,24,53,2,6,1,72,6,6,L,0.22517283950617284,0.25416666666666665,0.2796792452830188,0.1525
37,5,10,0,3,17.567999999999987,17,89,26,29,33,13,19.031999999999986,4.330999999999997,7.014999999999994,8.905999999999993,20,12,14,16,98,16,28,44,5,0.5,36,5.25,6,L,0.19420408163265304,0.27068749999999997,0.25053571428571425,0.2024090909090909
38,1,1,0,4,35.867999999999974,20,177,104,107,48,99,37.81999999999997,0.7319999999999998,2.9889999999999977,0.7319999999999998,20,3,8,4,185,3,11,4,2,0.5,17,2.75,6,L,0.20443243243243242,0.244,0.27172727272727265,0.183
38,1,2,0,10,39.64999999999997,20,189,96,86,18,69,42.82199999999997,0.427,0.6099999999999999,25.98599999999998,20,2,4,17,202,2,4,118,3,0,16,4,6,L,0.21199009900990096,0.2135,0.1525,0.22022033898305082
38,2,3,0,3,14.151999999999989,17,74,72,1,33,82,21.776999999999983,15.920999999999987,0.6099999999999999,3.2939999999999974,20,18,3,9,118,55,3,12,5,0,18,4.5,6,L,0.18455084745762712,0.2894727272727272,0.20333333333333334,0.27449999999999997
38,2,4,0,10,14.334999999999988,20,74,96,92,88,86,16.40899999999999,0.5489999999999999,0.427,0.5489999999999999,20,3,3,3,87,3,3,3,3,1,36,3,6,L,0.18860919540229884,0.183,0.14233333333333334,0.183
38,3,5,0,8,22.081999999999983,19,106,115,116,113,110,23.362999999999982,4.940999999999996,0.7319999999999998,0.427,20,12,3,5,111,24,3,5,2,1,24,2,6,L,0.21047747747747747,0.20587499999999997,0.244,0.0854
38,3,6,0,1,34.891999999999975,20,145,79,75,78,38,35.684999999999974,0.183,2.805999999999998,2.3179999999999983,20,1,6,7,151,1,8,7,3,0.5,23,3.5,6,L,0.23632450331125823,0.183,0.35074999999999995,0.33114285714285713
38,4,7,0,1,10.430999999999992,19,51,81,82,17,32,10.796999999999992,5.611999999999996,20.495999999999984,0.244,20,14,18,1,53,22,86,1,3,0,17,4.25,6,L,0.20371698113207545,0.2550909090909091,0.23832558139534882,0.244
38,4,8,0,5,21.593999999999983,20,109,43,39,45,47,24.03399999999998,1.585999999999999,0.488,2.3179999999999983,20,7,2,6,123,9,2,7,5,1,60,5,6,L,0.19539837398373983,0.1762222222222222,0.244,0.331142857142857
38,5,9,0,4,47.39699999999996,18,212,107,8,101,6,47.94599999999996,0.7929999999999997,1.0979999999999994,0.427,20,2,5,1,215,2,5,1,2,0,16,4,6,L,0.22300465116279067,0.39649999999999996,0.2196,0.427
38,5,10,0,2,28.852999999999977,18,142,51,13,53,58,30.072999999999976,2.3789999999999982,2.805999999999998,0.9759999999999995,20,4,6,3,147,5,6,3,4,0.5,30,4.5,6,L,0.20457823129251698,0.47579999999999995,0.4676666666666665,0.32533333333333325
39,1,1,0,10,32.32999999999998,20,145,89,4,92,9,34.037999999999975,1.2809999999999993,3.2329999999999974,0.6709999999999998,20,2,9,5,153,2,11,6,3,0,18,4.5,6,L,0.2224705882352941,0.6404999999999997,0.29390909090909084,0.11183333333333333
39,1,2,0,4,21.227999999999984,20,110,106,104,107,103,24.76599999999998,1.8299999999999987,2.439999999999998,1.524999999999999,20,5,8,5,127,5,10,6,2,1,24,2,6,L,0.195007874015748,0.3659999999999999,0.244,0.25416666666666665
39,2,3,0,5,14.700999999999988,19,76,37,40,15,42,14.883999999999988,6.404999999999995,4.208999999999997,0.183,20,16,10,1,79,28,13,1,5,0.5,36,5.25,6,L,0.18840506329113924,0.22874999999999998,0.3237692307692307,0.183
39,2,4,0,9,20.312999999999985,16,93,70,72,66,9,20.373999999999985,0.9759999999999995,1.0369999999999995,14.578999999999988,17,5,6,17,94,5,6,53,4,0.5,30,4.5,6,L,0.21674468085106383,0.19519999999999998,0.17283333333333334,0.2750754716981132
39,3,5,0,6,12.19999999999999,20,56,6,8,11,97,14.578999999999988,0.5489999999999999,4.879999999999996,9.698999999999993,20,4,13,15,68,4,22,36,6,0.5,38,5,6,L,0.2143970588235294,0.13724999999999998,0.2218181818181818,0.26941666666666664
39,3,6,0,7,16.774999999999988,18,84,21,20,15,33,17.445999999999987,1.9519999999999986,5.245999999999996,11.284999999999991,20,8,12,16,87,9,22,45,6,0.5,41,5.75,6,L,0.2005287356321839,0.21688888888888885,0.23845454545454545,0.25077777777777777
39,4,7,0,8,14.517999999999988,19,73,110,109,52,56,16.34799999999999,0.244,15.615999999999987,4.269999999999997,20,1,16,11,79,1,56,20,2,0,12,3,6,L,0.2069367088607595,0.244,0.2788571428571428,0.2135
39,4,8,0,3,20.983999999999984,20,99,35,31,34,32,21.105999999999984,1.646999999999999,0.244,1.585999999999999,20,8,1,5,101,9,1,6,5,1,60,5,6,L,0.20897029702970296,0.183,0.244,0.2643333333333333
39,5,9,0,1,20.129999999999985,19,86,77,76,75,65,20.251999999999985,0.427,4.330999999999997,5.7339999999999955,20,2,12,13,88,2,23,27,3,0.5,22,3.25,6,L,0.2301363636363636,0.2135,0.18830434782608696,0.21237037037037035
39,5,10,0,6,15.005999999999988,17,74,11,7,3,9,16.591999999999988,3.9649999999999967,1.7689999999999988,4.635999999999997,20,11,6,11,83,14,7,22,6,1,72,6,6,L,0.1999036144578313,0.28321428571428564,0.25271428571428567,0.2107272727272727
40,1,1,0,2,20.129999999999985,20,95,50,58,46,55,23.057999999999982,0.061,2.0129999999999986,3.1719999999999975,20,1,6,12,105,1,7,16,4,0.5,29,4.25,6,L,0.2196,0.061,0.28757142857142853,0.19824999999999998
40,1,2,0,9,27.571999999999978,20,110,70,5,63,69,29.584999999999976,2.439999999999998,0.8539999999999996,1.7689999999999988,20,5,3,8,119,7,4,9,4,0.5,30,4.5,6,L,0.24861344537815125,0.3485714285714285,0.2135,0.19655555555555554
40,2,3,0,9,18.177999999999987,18,90,63,68,64,8,19.824999999999985,0.7929999999999997,4.269999999999997,3.903999999999997,20,3,14,9,94,3,18,10,4,0.5,30,4.5,6,L,0.21090425531914891,0.2643333333333333,0.2372222222222222,0.3903999999999999
40,2,4,0,7,26.71799999999998,20,118,16,23,110,15,27.08399999999998,7.807999999999994,5.611999999999996,4.452999999999997,20,17,13,14,120,37,32,22,6,0.5,38,5,6,L,0.22569999999999998,0.21102702702702703,0.175375,0.2024090909090909
40,3,5,0,6,21.471999999999984,19,118,5,7,8,88,26.53499999999998,3.0499999999999976,0.122,1.8909999999999987,20,9,2,8,147,10,2,14,6,0.5,39,5.25,6,L,0.18051020408163265,0.30499999999999994,0.061,0.13507142857142856
40,3,6,0,2,20.007999999999985,19,88,55,57,50,20,20.617999999999984,1.646999999999999,3.476999999999997,7.8689999999999936,20,4,10,12,93,5,12,26,4,0.5,30,4.5,6,L,0.22169892473118277,0.32939999999999997,0.28974999999999995,0.3026538461538461
40,4,7,0,6,20.068999999999985,16,105,2,10,52,44,20.190999999999985,14.334999999999988,0.6099999999999999,1.0979999999999994,17,17,4,6,106,69,5,6,6,0,21,5.25,6,L,0.19048113207547168,0.2077536231884058,0.122,0.183
40,4,8,0,8,24.09499999999998,20,103,116,110,117,87,25.86399999999998,0.488,5.245999999999996,7.624999999999994,20,3,12,13,110,3,19,26,2,0.5,15,2.25,6,L,0.2351272727272727,0.16266666666666665,0.2761052631578947,0.2932692307692307
40,5,9,0,6,11.345999999999991,17,51,6,3,12,9,15.37199999999999,13.05399999999999,2.1959999999999984,1.0979999999999994,20,17,12,6,61,45,14,6,6,1,72,6,6,L,0.25199999999999995,0.29008888888888884,0.15685714285714283,0.183
40,5,10,0,9,20.251999999999985,19,90,65,69,87,62,20.861999999999984,1.0979999999999994,2.561999999999998,4.635999999999997,20,5,7,11,93,5,11,20,4,0.5,27,3.75,6,L,0.22432258064516128,0.2196,0.2329090909090909,0.23179999999999998
41,1,1,0,7,14.517999999999988,19,76,16,18,86,36,26.47399999999998,11.223999999999991,2.1349999999999985,0.366,20,18,8,3,126,49,8,3,6,0,20,5,6,L,0.2101111111111111,0.2290612244897959,0.266875,0.122
41,1,2,0,4,23.66799999999998,20,110,101,104,97,62,24.03399999999998,0.6709999999999998,0.244,8.356999999999994,20,2,3,17,115,2,3,34,2,0.5,16,2.5,6,L,0.20899130434782606,0.3355,0.08133333333333333,0.2457941176470588
41,2,3,0,10,24.52199999999998,19,122,88,90,91,16,25.68099999999998,1.2809999999999993,5.184999999999996,3.537999999999997,20,5,15,7,127,6,26,8,3,0.5,24,3.75,6,L,0.20221259842519684,0.2135,0.1994230769230769,0.4422499999999999
41,2,4,0,1,17.872999999999987,19,91,81,79,74,82,21.471999999999984,0.305,3.842999999999997,0.061,20,3,9,1,105,3,15,1,3,1,36,3,6,L,0.2044952380952381,0.10166666666666667,0.2562,0.061
41,3,5,0,2,17.140999999999988,16,85,58,59,49,56,18.360999999999986,0.6099999999999999,4.208999999999997,1.585999999999999,20,4,10,8,91,4,13,8,4,1,48,4,6,L,0.20176923076923076,0.1525,0.32376923076923075,0.19824999999999998
41,3,6,0,8,49.77599999999996,19,229,116,16,112,113,51.17899999999996,0.061,0.9759999999999995,0.122,20,1,3,1,236,1,3,1,2,0.5,18,3,6,L,0.2168601694915254,0.061,0.3253333333333333,0.122
41,4,7,0,10,18.177999999999987,20,88,91,119,90,89,20.983999999999984,3.720999999999997,0.305,0.8539999999999996,20,10,1,3,103,11,1,4,3,0.5,20,2.75,6,L,0.20372815533980582,0.33827272727272717,0.305,0.2135
41,4,8,0,1,19.458999999999985,17,78,75,73,83,84,19.580999999999985,1.2199999999999993,0.488,4.147999999999997,19,5,3,12,80,6,3,19,3,1,36,3,6,L,0.2447625,0.20333333333333334,0.16266666666666665,0.2183157894736842
41,5,9,0,5,17.689999999999987,19,85,40,42,37,20,22.813999999999982,0.122,2.2569999999999983,7.8689999999999936,20,1,9,16,106,2,12,39,5,0.5,36,5.25,6,L,0.2152264150943396,0.061,0.18808333333333332,0.20176923076923076
41,5,10,0,1,21.471999999999984,20,104,3,52,84,108,45.688999999999965,0.183,0.061,0.6709999999999998,20,2,1,3,204,2,1,3,3,0,15,3.75,6,L,0.22396568627450977,0.0915,0.061,0.22366666666666665
42,1,1,0,10,11.040999999999991,18,48,86,93,96,35,16.957999999999988,2.2569999999999983,2.0739999999999985,4.269999999999997,20,9,6,13,69,10,8,21,3,0.5,23,3.5,6,L,0.24576811594202896,0.22569999999999998,0.25925,0.2033333333333333
42,1,2,0,8,25.86399999999998,20,131,115,110,118,66,27.449999999999978,0.244,0.122,4.391999999999997,20,1,2,9,141,1,2,15,2,0.5,16,2.5,6,L,0.19468085106382976,0.244,0.061,0.29279999999999995
42,2,3,0,4,28.791999999999977,19,109,107,103,102,49,30.316999999999975,0.427,0.061,2.0129999999999986,20,2,1,5,113,2,1,6,2,0.5,16,2.5,6,L,0.26829203539823004,0.2135,0.061,0.3354999999999999
42,2,4,0,8,21.959999999999983,18,88,116,113,117,22,26.35199999999998,4.940999999999996,0.5489999999999999,8.112999999999994,20,12,3,16,107,25,3,42,2,0.5,18,3,6,L,0.24628037383177567,0.19763999999999998,0.183,0.19316666666666663
42,3,5,0,2,14.029999999999989,17,73,52,77,1,5,15.188999999999988,10.369999999999992,4.574999999999997,0.061,20,16,14,1,76,40,17,1,4,0,19,4.75,6,L,0.19985526315789473,0.25925,0.2691176470588235,0.061
42,3,6,0,8,21.288999999999984,18,108,120,112,19,30,31.780999999999977,4.513999999999997,4.269999999999997,0.122,20,13,12,1,151,26,23,1,2,0,15,3.75,6,L,0.21047019867549668,0.17361538461538462,0.18565217391304348,0.122
42,4,7,0,4,13.602999999999989,19,71,101,100,105,107,13.724999999999989,8.600999999999994,0.488,0.7319999999999998,20,16,3,2,73,35,4,2,2,1,24,2,6,L,0.18801369863013698,0.24574285714285712,0.122,0.3659999999999999
42,4,8,0,10,19.336999999999986,20,89,89,55,59,93,21.410999999999984,0.244,4.7579999999999965,1.2809999999999993,20,2,10,4,93,2,20,4,3,0,14,3.5,6,L,0.2302258064516129,0.122,0.23789999999999997,0.32025
42,5,9,0,6,24.70499999999998,18,120,6,8,11,69,24.88799999999998,2.439999999999998,9.942999999999993,3.3549999999999973,20,10,16,10,123,13,44,14,6,0.5,40,5.5,6,L,0.20234146341463413,0.18769230769230769,0.2259772727272727,0.23964285714285713
42,5,10,0,3,14.944999999999988,20,71,27,32,109,30,15.859999999999987,4.940999999999996,3.2939999999999974,4.452999999999997,20,17,10,10,77,28,16,16,5,0.5,32,4.25,6,L,0.20597402597402595,0.1764642857142857,0.20587499999999997,0.27831249999999996
43,1,1,0,8,12.74899999999999,20,63,113,109,112,116,14.090999999999989,0.6709999999999998,1.8909999999999987,3.476999999999997,20,7,9,10,71,8,11,15,2,1,24,2,6,L,0.19846478873239437,0.083875,0.1719090909090909,0.2318
43,1,2,0,1,23.54599999999998,19,118,74,43,39,2,24.88799999999998,6.221999999999995,3.659999999999997,7.807999999999994,20,16,12,16,126,29,16,32,3,0,19,4.75,6,L,0.19752380952380952,0.21455172413793103,0.22874999999999995,0.24399999999999997
43,2,3,0,8,9.210999999999993,17,47,14,18,118,120,30.19499999999998,8.783999999999994,0.061,0.183,20,17,1,2,126,29,1,2,2,0,16,4,6,L,0.23964285714285713,0.3028965517241379,0.061,0.0915
43,2,4,0,2,37.69799999999997,19,166,54,52,60,49,38.79599999999997,0.122,3.781999999999997,0.427,20,1,11,2,169,1,17,2,4,1,48,4,6,L,0.22956213017751476,0.122,0.22247058823529411,0.2135
43,3,5,0,6,16.957999999999988,20,82,11,27,116,93,26.168999999999983,3.598999999999997,0.9759999999999995,6.770999999999995,20,8,3,15,117,13,3,26,6,0,16,4,6,L,0.22366666666666665,0.2768461538461538,0.3253333333333333,0.26042307692307687
43,3,6,0,2,45.261999999999965,19,199,58,55,54,24,45.505999999999965,0.5489999999999999,5.062999999999996,3.476999999999997,20,4,9,9,201,5,10,9,4,0.5,30,4.5,6,L,0.22639800995024872,0.1098,0.5062999999999998,0.38633333333333325
43,4,7,0,2,19.458999999999985,20,96,114,27,55,113,42.88299999999997,16.957999999999988,0.061,0.061,20,19,1,1,192,66,1,1,4,0,13,3.25,6,L,0.22334895833333332,0.2569393939393939,0.061,0.061
43,4,8,0,9,22.508999999999983,19,110,71,68,64,13,22.752999999999982,1.524999999999999,2.0129999999999986,2.3789999999999982,20,4,9,8,112,6,11,8,4,0.5,30,4.5,6,L,0.20315178571428572,0.25416666666666665,0.183,0.29737499999999994
43,5,9,0,5,15.798999999999987,16,80,2,41,42,91,41.23599999999997,0.6099999999999999,1.3419999999999992,1.1589999999999994,20,2,5,7,192,2,6,10,5,0,19,4.75,6,L,0.2147708333333333,0.305,0.22366666666666662,0.1159
43,5,10,0,4,11.89499999999999,19,53,18,104,61,77,29.64599999999998,0.061,0.488,0.305,20,1,3,2,120,1,3,2,2,0,15,3.75,6,L,0.24704999999999996,0.061,0.16266666666666665,0.1525
44,1,1,0,1,18.665999999999986,18,92,77,23,54,60,23.42399999999998,2.500999999999998,6.160999999999995,0.366,20,7,14,1,110,8,27,1,3,0,17,4.25,6,L,0.21294545454545452,0.3126249999999999,0.22818518518518516,0.366
44,1,2,0,10,18.299999999999986,16,88,96,93,61,37,23.240999999999982,3.2939999999999974,7.807999999999994,0.8539999999999996,20,10,15,3,106,16,36,3,3,0,15,3.75,6,L,0.21925471698113205,0.205875,0.21688888888888885,0.2846666666666667
44,2,3,0,6,13.785999999999989,19,80,4,8,10,46,14.395999999999988,0.305,2.0129999999999986,13.602999999999989,20,4,4,16,81,4,6,59,6,0.5,41,5.75,6,L,0.17772839506172838,0.07625,0.3354999999999999,0.23055932203389828
44,2,4,0,8,25.68099999999998,20,127,14,110,61,29,44.163999999999966,0.5489999999999999,1.8909999999999987,0.5489999999999999,20,2,4,3,206,2,5,3,2,0,17,4.25,6,L,0.2143883495145631,0.27449999999999997,0.3782,0.183
44,3,5,0,7,25.43699999999998,20,127,18,17,23,26,27.02299999999998,0.427,3.598999999999997,3.842999999999997,20,2,13,10,138,3,24,13,6,0.5,41,5.75,6,L,0.19581884057971014,0.14233333333333334,0.14995833333333333,0.29561538461538456
44,3,6,0,6,16.957999999999988,20,83,11,4,5,9,17.140999999999988,0.6709999999999998,1.646999999999999,0.7319999999999998,20,1,3,5,84,1,4,5,6,1,72,6,6,L,0.2040595238095238,0.6709999999999998,0.41174999999999984,0.1464
44,4,7,0,10,22.874999999999982,20,110,85,26,19,16,25.43699999999998,5.428999999999996,2.744999999999998,1.3419999999999992,20,10,7,6,121,16,11,6,3,0,20,5,6,L,0.21022314049586777,0.3393124999999999,0.24954545454545451,0.22366666666666665
44,4,8,0,1,25.07099999999998,20,108,84,77,79,78,26.35199999999998,1.9519999999999986,0.427,1.8299999999999987,20,5,2,5,115,7,2,6,3,1,36,3,6,L,0.2291478260869565,0.2788571428571428,0.2135,0.30499999999999994
44,5,9,0,6,20.556999999999984,18,88,2,12,8,11,21.166999999999984,1.2809999999999993,4.635999999999997,4.269999999999997,20,9,12,13,90,9,19,20,6,1,72,6,6,L,0.23518888888888886,0.14233333333333334,0.244,0.21349999999999997
44,5,10,0,5,35.379999999999974,17,163,13,43,120,61,54.838999999999956,0.7319999999999998,1.7689999999999988,0.061,20,4,5,1,237,4,5,1,5,0,17,4.25,6,L,0.23138818565400843,0.183,0.3537999999999999,0.061
45,1,1,0,5,13.29799999999999,19,62,38,42,2,44,25.37599999999998,0.183,0.366,2.561999999999998,20,2,1,9,119,2,1,13,5,0.5,36,5.25,6,L,0.21324369747899158,0.0915,0.366,0.19707692307692307
45,1,2,0,9,26.53499999999998,20,137,36,68,34,70,30.072999999999976,0.366,0.7929999999999997,4.330999999999997,20,2,2,15,146,3,2,32,4,0,18,4.5,6,L,0.2059794520547945,0.122,0.39649999999999996,0.13534374999999998
45,2,3,0,10,26.04699999999998,18,122,91,85,31,95,27.510999999999978,3.3549999999999973,6.404999999999995,0.061,20,12,15,1,126,16,35,1,3,0.5,23,3.5,6,L,0.21834126984126984,0.2096875,0.183,0.061
45,2,4,0,5,15.432999999999987,18,74,40,4,45,43,18.116999999999987,13.968999999999989,0.5489999999999999,0.8539999999999996,20,16,4,4,84,57,4,5,5,0.5,36,5.25,6,L,0.21567857142857141,0.24507017543859647,0.13724999999999998,0.1708
45,3,5,0,4,26.22999999999998,20,125,105,103,99,21,26.59599999999998,1.7689999999999988,1.0369999999999995,6.160999999999995,20,10,3,15,127,16,3,28,2,0.5,18,3,6,L,0.20941732283464565,0.1105625,0.3456666666666666,0.22003571428571428
45,3,6,0,5,12.19999999999999,20,68,65,68,5,42,30.92699999999998,3.476999999999997,7.197999999999994,0.061,20,11,13,1,141,21,26,1,5,0,19,4.75,6,L,0.21934042553191488,0.16557142857142856,0.2768461538461538,0.061
45,4,7,0,1,22.325999999999983,20,109,80,77,74,20,22.874999999999982,3.2939999999999974,0.9759999999999995,3.3549999999999973,20,12,5,10,115,16,5,19,3,0.5,24,3.75,6,L,0.19891304347826086,0.20587499999999997,0.19519999999999998,0.17657894736842106
45,4,8,0,6,12.26099999999999,19,68,5,9,66,10,14.212999999999989,9.698999999999993,2.3789999999999982,0.7319999999999998,20,14,5,3,79,46,6,3,6,0.5,40,5.5,6,L,0.1799113924050633,0.2108478260869565,0.3964999999999999,0.24399999999999997
45,5,9,0,6,12.19999999999999,19,66,5,6,9,7,17.506999999999987,0.366,2.622999999999998,13.724999999999989,20,3,9,16,93,3,10,66,6,1,72,6,6,L,0.18824731182795698,0.122,0.2623,0.20795454545454545
45,5,10,0,3,25.61999999999998,19,103,29,28,25,35,27.205999999999978,0.244,0.244,6.709999999999995,20,1,2,13,108,1,2,29,5,1,60,5,6,L,0.25190740740740736,0.244,0.122,0.23137931034482756
46,1,1,0,1,29.645999999999976,18,119,77,22,83,55,30.865999999999975,6.709999999999995,0.061,0.061,20,15,1,1,124,26,1,1,3,0,16,4,6,L,0.24891935483870967,0.25807692307692304,0.061,0.061
46,1,2,0,5,21.044999999999984,20,95,40,9,8,47,21.166999999999984,4.330999999999997,15.554999999999987,0.6099999999999999,20,12,18,5,96,16,58,5,5,0,22,5.5,6,L,0.22048958333333332,0.27068749999999997,0.2681896551724138,0.122
46,2,3,0,8,24.82699999999998,20,122,113,116,118,56,25.25399999999998,0.8539999999999996,4.818999999999996,5.977999999999995,20,2,12,16,124,2,24,36,2,0.5,16,2.5,6,L,0.20366129032258062,0.42699999999999994,0.20079166666666665,0.16605555555555554
46,2,4,0,3,21.654999999999983,19,101,32,13,35,78,28.425999999999977,4.025999999999997,0.244,0.6099999999999999,20,13,2,2,133,17,2,2,5,0,19,4.75,6,L,0.21372932330827066,0.23682352941176468,0.122,0.30499999999999994
46,3,5,0,6,11.83399999999999,17,66,12,2,7,41,11.89499999999999,3.3549999999999973,0.7929999999999997,24.33899999999998,18,8,3,16,67,16,3,99,6,0.5,41,5.75,6,L,0.17753731343283582,0.20968749999999997,0.2643333333333333,0.24584848484848482
46,3,6,0,10,15.188999999999988,19,72,85,18,66,33,24.76599999999998,13.17599999999999,1.646999999999999,2.0129999999999986,20,17,6,11,115,46,6,14,3,0,18,4.5,6,L,0.21535652173913042,0.2864347826086956,0.27449999999999997,0.1437857142857143
46,4,7,0,4,14.883999999999988,19,77,13,16,98,99,45.566999999999965,1.524999999999999,0.6099999999999999,0.061,20,6,2,1,202,7,2,1,2,0,16,4,6,L,0.22557920792079206,0.21785714285714286,0.30499999999999994,0.061
46,4,8,0,6,23.78999999999998,20,115,2,8,38,11,24.09499999999998,0.244,4.7579999999999965,1.9519999999999986,20,1,9,7,117,2,14,8,6,0.5,41,5.75,6,L,0.20594017094017092,0.122,0.3398571428571428,0.244
46,5,9,0,3,11.223999999999991,20,55,29,27,28,33,13.785999999999989,4.330999999999997,4.208999999999997,3.3549999999999973,20,12,13,7,65,16,17,13,5,1,60,5,6,L,0.2120923076923077,0.27068749999999997,0.2475882352941176,0.25807692307692304
46,5,10,0,5,24.76599999999998,19,124,38,44,15,22,28.547999999999977,3.3549999999999973,0.5489999999999999,3.537999999999997,20,11,1,14,142,14,1,18,5,0,22,5.5,6,L,0.20104225352112676,0.2396428571428571,0.5489999999999999,0.19655555555555554
47,1,1,0,4,15.127999999999988,20,77,103,106,105,100,17.079999999999988,0.061,1.9519999999999986,3.0499999999999976,20,1,8,9,88,1,12,14,2,1,24,2,6,L,0.1940909090909091,0.061,0.16266666666666665,0.21785714285714286
