Subject,Round,Phase,afterbreak,Schema,Schema_RT,Schema_OB,Schema_AS,Cho_1,Cho_2,Cho_3,Cho_4,RT_1,RT_2,RT_3,RT_4,OB_1,OB_2,OB_3,OB_4,AS_1,AS_2,AS_3,AS_4,schema_payoff,AC,performance,payoff,breakR,type,dwellmean_1,dwellmean_2,dwellmean_3,dwellmean_4
1,1,1,0,10,32.75699999999998,18,143,14,44,54,91,55.75399999999996,0.488,0.305,0.427,20,4,2,3,246,4,3,3,3,0,18,4.5,6,L,0.2266422764227642,0.122,0.10166666666666667,0.14233333333333334
1,1,2,0,8,26.65699999999998,19,132,116,110,112,27,26.96199999999998,0.061,0.9759999999999995,9.820999999999993,20,1,4,14,133,1,5,36,2,0.5,17,2.75,6,L,0.2027218045112782,0.061,0.19519999999999998,0.2728055555555555
1,2,3,0,6,64.96500000000006,16,298,6,94,92,44,65.02600000000007,3.598999999999997,0.7929999999999997,0.366,17,12,5,1,299,16,5,1,6,0,17,4.25,6,L,0.2174782608695652,0.22493749999999998,0.1586,0.366
1,2,4,0,1,20.983999999999984,20,112,83,81,84,31,22.386999999999983,0.9149999999999996,4.086999999999997,2.2569999999999983,20,4,11,10,116,4,15,15,3,0.5,23,3.5,6,L,0.19299137931034482,0.22875,0.27246666666666663,0.15046666666666667
1,3,5,0,3,24.33899999999998,19,103,33,31,29,25,24.76599999999998,0.366,1.0979999999999994,1.4029999999999991,20,1,5,4,107,1,6,6,5,1,60,5,6,L,0.2314579439252336,0.366,0.183,0.2338333333333333
1,3,6,0,8,40.13799999999997,14,153,113,109,117,37,42.08999999999997,0.9759999999999995,0.6099999999999999,3.598999999999997,20,3,4,10,162,3,4,14,2,0.5,17,2.75,6,L,0.2598148148148148,0.32533333333333325,0.1525,0.25707142857142856
1,4,7,0,5,52.39899999999996,15,232,47,45,11,39,53.86299999999996,1.463999999999999,3.4159999999999973,1.585999999999999,20,6,11,7,237,6,17,8,5,0.5,36,5.25,6,L,0.2272700421940928,0.244,0.2009411764705882,0.19824999999999998
1,4,8,0,8,8.844999999999994,15,48,117,120,111,119,9.271999999999993,0.183,1.1589999999999994,0.7319999999999998,18,2,6,8,51,2,6,8,2,1,24,2,6,L,0.18180392156862746,0.0915,0.19316666666666665,0.0915
1,5,9,0,6,72.46800000000093,11,310,9,3,59,93,73.62700000000093,0.8539999999999996,3.476999999999997,4.818999999999996,17,4,10,11,316,5,16,17,6,0,19,4.75,6,L,0.23299683544303795,0.17079999999999998,0.21731249999999996,0.2834705882352941
1,5,10,0,8,18.726999999999986,20,89,81,111,117,14,41.90699999999997,0.122,1.585999999999999,1.7079999999999989,20,1,3,8,192,1,3,8,2,0,13,3.25,6,L,0.218265625,0.122,0.5286666666666664,0.21349999999999997
2,1,1,0,6,23.48499999999998,17,111,5,1,95,49,23.54599999999998,0.305,19.458999999999985,15.188999999999988,18,2,16,16,112,2,72,65,6,0,19,4.75,6,L,0.21023214285714284,0.1525,0.27026388888888886,0.23367692307692306
2,1,2,0,1,23.97299999999998,14,100,84,81,75,78,24.27799999999998,1.646999999999999,0.8539999999999996,0.427,17,9,5,5,103,10,6,5,3,1,36,3,6,L,0.23570873786407764,0.16469999999999999,0.14233333333333334,0.0854
2,2,3,0,3,26.47399999999998,13,112,31,33,34,35,28.181999999999977,1.3419999999999992,0.5489999999999999,0.6099999999999999,20,5,3,2,120,5,4,2,5,1,60,5,6,L,0.23484999999999998,0.26839999999999997,0.13724999999999998,0.305
2,2,4,0,5,19.885999999999985,16,94,41,44,46,14,21.166999999999984,0.7929999999999997,1.7689999999999988,1.2809999999999993,20,3,5,2,102,3,5,2,5,0.5,36,5.25,6,L,0.20751960784313725,0.2643333333333333,0.35379999999999995,0.6404999999999996
2,3,5,0,1,67.40500000000034,15,295,82,75,54,10,67.58800000000035,0.5489999999999999,1.7079999999999989,0.305,16,5,6,2,296,5,6,2,3,0,16,4,6,L,0.22833783783783781,0.1098,0.2846666666666666,0.1525
2,3,6,0,9,33.549999999999976,17,146,63,65,67,61,34.403999999999975,0.427,4.025999999999997,1.8299999999999987,20,3,13,7,149,3,19,8,4,1,48,4,6,L,0.23089932885906037,0.14233333333333334,0.21189473684210525,0.22875
2,4,7,0,5,38.85699999999997,17,179,44,37,40,45,39.34499999999997,1.585999999999999,0.244,0.183,20,7,2,2,183,7,2,2,5,1,60,5,6,L,0.21499999999999997,0.22657142857142856,0.122,0.0915
2,4,8,0,3,16.713999999999988,17,74,36,34,35,29,17.689999999999987,0.6099999999999999,0.9149999999999996,0.305,20,4,6,2,83,5,6,2,5,1,60,5,6,L,0.21313253012048192,0.122,0.1525,0.1525
2,5,9,0,7,44.468999999999966,12,201,14,23,19,52,44.529999999999966,2.500999999999998,0.122,22.569999999999983,13,7,1,17,202,10,1,87,6,0.5,40,5.5,6,L,0.22044554455445542,0.2500999999999999,0.122,0.2594252873563218
2,5,10,0,9,17.018999999999988,17,83,63,3,65,66,20.312999999999985,15.676999999999987,0.122,0.488,20,17,2,3,92,65,2,3,4,0.5,30,4.5,6,L,0.22079347826086954,0.24118461538461536,0.061,0.16266666666666665
3,1,1,0,6,15.371999999999987,9,63,9,83,45,3,16.40899999999999,16.652999999999988,0.9149999999999996,2.2569999999999983,12,17,6,8,67,68,7,9,6,0,20,5,5,L,0.244910447761194,0.24489705882352938,0.1307142857142857,0.25077777777777777
3,1,2,0,2,17.323999999999987,17,91,49,56,17,60,18.177999999999987,6.709999999999995,4.147999999999997,5.550999999999996,20,12,11,11,97,29,18,21,4,0.5,30,4.5,5,L,0.1874020618556701,0.23137931034482756,0.23044444444444442,0.2643333333333333
3,2,3,0,3,41.72399999999997,19,172,32,34,35,29,42.69999999999997,0.244,0.6709999999999998,1.2809999999999993,20,1,2,6,176,1,3,6,5,1,60,5,5,L,0.24261363636363634,0.244,0.22366666666666665,0.21349999999999997
3,2,4,0,8,44.712999999999965,17,200,110,112,48,120,45.993999999999964,1.9519999999999986,2.2569999999999983,3.1109999999999975,20,4,6,10,208,4,6,12,2,0.5,17,2.75,5,L,0.22112499999999996,0.4879999999999998,0.3761666666666666,0.25925
3,3,5,0,4,53.98499999999996,15,260,98,105,97,63,54.899999999999956,0.6099999999999999,3.781999999999997,2.3789999999999982,19,3,13,6,264,3,26,9,2,0.5,16,2.5,5,L,0.20795454545454545,0.20333333333333334,0.14546153846153845,0.2643333333333333
3,3,6,0,7,46.96999999999996,11,218,13,21,24,16,47.03099999999996,0.061,1.0979999999999994,19.763999999999985,12,1,3,17,219,1,3,80,6,1,72,6,5,L,0.21475342465753422,0.061,0.3659999999999999,0.24704999999999996
3,4,7,0,9,45.627999999999965,10,180,70,72,13,62,49.65399999999996,3.2939999999999974,1.585999999999999,0.061,20,11,7,1,200,16,8,1,4,0.5,30,4.5,5,L,0.24827,0.20587499999999997,0.19824999999999998,0.061
3,4,8,0,6,18.848999999999986,13,91,4,6,9,29,19.702999999999985,2.1959999999999984,0.488,8.051999999999994,15,9,2,12,93,13,2,30,6,0.5,41,5.75,5,L,0.21186021505376343,0.16892307692307693,0.244,0.26839999999999997
4,1,1,0,6,23.54599999999998,14,91,8,6,33,31,23.91199999999998,1.3419999999999992,4.6969999999999965,5.306999999999996,16,6,12,14,93,6,24,28,6,0,22,5.5,6,L,0.2571182795698924,0.22366666666666665,0.19570833333333332,0.18953571428571428
4,1,2,0,10,21.715999999999983,18,98,86,93,88,19,22.325999999999983,1.3419999999999992,0.9149999999999996,5.7949999999999955,20,2,5,13,102,3,5,29,3,0.5,24,3.75,6,L,0.21888235294117644,0.44733333333333325,0.183,0.19982758620689656
4,2,3,0,2,22.081999999999983,16,119,56,54,19,86,23.66799999999998,5.184999999999996,12.74899999999999,0.366,20,14,17,3,129,28,63,3,4,0,17,4.25,6,L,0.18347286821705425,0.18517857142857141,0.20236507936507936,0.122
4,2,4,0,6,25.19299999999998,17,112,3,30,9,5,29.157999999999976,1.2199999999999993,2.1349999999999985,0.244,20,7,7,2,132,8,9,2,6,0.5,41,5.75,6,L,0.22089393939393936,0.1525,0.2372222222222222,0.122
4,3,5,0,4,28.181999999999977,17,132,107,99,53,101,29.645999999999976,0.122,7.197999999999994,1.646999999999999,20,1,14,8,138,1,27,10,2,0.5,16,2.5,6,L,0.21482608695652172,0.122,0.26659259259259255,0.16469999999999999
4,3,6,0,3,46.603999999999964,13,211,30,2,6,76,48.61699999999996,9.942999999999993,10.247999999999992,0.122,20,16,16,2,222,43,41,2,5,0,20,5,6,L,0.2189954954954955,0.23123255813953486,0.2499512195121951,0.061
4,4,7,0,4,16.774999999999988,17,79,99,100,103,39,17.872999999999987,0.8539999999999996,0.5489999999999999,6.343999999999995,20,5,3,12,82,5,3,26,2,0.5,17,2.75,6,L,0.21796341463414634,0.1708,0.183,0.24399999999999997
4,4,8,0,3,25.43699999999998,18,117,33,28,12,4,25.86399999999998,2.744999999999998,11.345999999999991,3.1109999999999975,20,5,17,11,120,8,53,14,5,0,22,5.5,6,L,0.21553333333333333,0.3431249999999999,0.2140754716981132,0.2222142857142857
4,5,9,0,10,38.97899999999997,18,176,96,87,93,19,39.22299999999997,0.122,1.524999999999999,1.7689999999999988,19,1,6,3,177,1,7,5,3,0.5,24,3.75,6,L,0.22159887005649717,0.122,0.21785714285714286,0.35379999999999995
4,5,10,0,4,54.655999999999956,13,251,101,98,4,105,55.143999999999956,0.5489999999999999,2.8669999999999978,3.2939999999999974,17,2,10,12,255,3,14,18,2,0.5,18,3,6,L,0.21625098039215684,0.183,0.20478571428571427,0.183
5,1,1,0,5,58.01099999999995,17,234,37,47,18,60,58.13299999999995,2.500999999999998,6.038999999999995,0.122,19,8,13,1,236,10,28,1,5,0,20,5,5,L,0.24632627118644065,0.2501,0.21567857142857141,0.122
5,1,2,0,9,39.71099999999997,20,188,71,9,34,69,40.74799999999997,9.637999999999993,0.061,0.6099999999999999,20,15,1,4,195,40,1,5,4,0,19,4.75,5,L,0.20896410256410256,0.24094999999999997,0.061,0.122
5,2,3,0,4,58.25499999999995,14,254,105,107,98,70,58.31599999999995,2.0739999999999985,2.561999999999998,1.8299999999999987,15,8,6,5,255,10,8,6,2,0.5,16,2.5,5,L,0.22869019607843136,0.20739999999999997,0.32025,0.30499999999999994
5,2,4,0,2,34.220999999999975,20,158,59,57,52,8,34.769999999999975,1.7689999999999988,0.9149999999999996,2.805999999999998,20,5,2,10,160,7,2,17,4,0.5,30,4.5,5,L,0.21731249999999996,0.2527142857142857,0.4574999999999998,0.16505882352941176
5,3,5,0,5,35.989999999999974,14,150,3,45,37,5,48.12899999999996,0.061,0.305,0.6099999999999999,20,1,3,2,214,1,3,2,5,0,22,5.5,5,L,0.2249018691588785,0.061,0.10166666666666667,0.305
5,3,6,0,3,31.780999999999974,15,140,34,29,26,32,31.841999999999974,1.2809999999999993,0.244,2.500999999999998,16,5,2,6,141,6,2,9,5,1,60,5,5,L,0.22582978723404254,0.2135,0.122,0.27788888888888885
5,4,7,0,9,68.99100000000053,13,281,71,64,23,19,70.15000000000053,0.7319999999999998,0.8539999999999996,1.8299999999999987,18,4,2,4,287,7,2,4,4,0,20,5,5,L,0.24442508710801392,0.10457142857142857,0.427,0.45749999999999996
5,4,8,0,3,46.84799999999996,18,213,32,27,26,10,48.12899999999996,1.0979999999999994,2.3789999999999982,5.123999999999996,20,6,10,13,222,7,10,24,5,0.5,36,5.25,5,L,0.21679729729729727,0.15685714285714286,0.2379,0.2135
6,1,1,0,8,29.035999999999976,20,148,109,42,120,116,32.39099999999998,1.2809999999999993,0.061,0.244,20,4,1,3,161,4,1,3,2,0.5,17,2.75,6,L,0.20118633540372668,0.32025,0.061,0.08133333333333333
6,1,2,0,4,30.804999999999975,18,122,104,106,100,108,32.20799999999998,0.7929999999999997,0.122,0.427,20,3,2,3,129,3,2,3,2,1,24,2,6,L,0.24967441860465112,0.2643333333333333,0.061,0.14233333333333334
6,2,3,0,9,14.639999999999988,16,71,71,18,72,41,16.652999999999988,11.223999999999991,2.2569999999999983,7.8689999999999936,20,15,7,13,75,48,7,28,4,0,19,4.75,6,L,0.22204,0.2338333333333333,0.32242857142857134,0.2810357142857143
6,2,4,0,3,37.14899999999997,19,154,27,29,11,32,37.33199999999997,3.537999999999997,2.2569999999999983,0.061,20,9,9,1,155,12,11,1,5,0.5,36,5.25,6,L,0.2408516129032258,0.2948333333333333,0.2051818181818182,0.061
6,3,5,0,3,36.17299999999997,17,168,27,30,25,23,36.96599999999997,0.5489999999999999,0.6099999999999999,1.463999999999999,19,6,3,4,170,6,4,5,5,0.5,36,5.25,6,L,0.21744705882352938,0.0915,0.1525,0.2927999999999999
6,3,6,0,1,30.926999999999975,17,154,74,79,82,77,31.292999999999974,0.9759999999999995,0.061,0.6709999999999998,18,8,1,3,155,8,1,3,3,1,36,3,6,L,0.20189032258064515,0.122,0.061,0.22366666666666665
6,4,7,0,4,18.177999999999987,13,87,106,99,105,104,19.153999999999986,0.366,1.4029999999999991,1.463999999999999,17,3,3,5,91,3,3,5,2,1,24,2,6,L,0.21048351648351646,0.122,0.46766666666666656,0.2927999999999999
6,4,8,0,5,42.51699999999997,14,188,44,43,1,5,43.858999999999966,4.025999999999997,5.367999999999996,1.2199999999999993,20,10,12,6,196,13,23,9,5,0,22,5.5,6,L,0.22377040816326527,0.30969230769230766,0.23339130434782607,0.13555555555555554
6,5,9,0,8,42.94399999999997,12,206,109,111,4,64,46.054999999999964,0.122,5.916999999999995,4.635999999999997,20,1,15,8,217,1,24,14,2,0,14,3.5,6,L,0.21223502304147462,0.122,0.24654166666666663,0.33114285714285707
6,5,10,0,2,19.763999999999985,18,101,47,57,105,91,53.679999999999964,0.061,1.0369999999999995,0.6709999999999998,20,1,4,3,236,1,5,3,4,0,14,3.5,6,L,0.22745762711864406,0.061,0.2074,0.22366666666666665
7,1,1,0,10,30.194999999999975,18,132,91,88,89,12,30.255999999999975,0.427,0.061,6.8319999999999945,19,4,1,14,133,4,1,30,3,0.5,24,3.75,6,L,0.22748872180451124,0.10675,0.061,0.22773333333333332
7,1,2,0,2,30.011999999999976,14,152,50,60,13,16,30.377999999999975,18.848999999999986,0.6709999999999998,3.598999999999997,16,19,3,13,154,84,3,18,4,0,20,5,6,L,0.19725974025974025,0.22439285714285712,0.22366666666666665,0.19994444444444442
7,2,3,0,8,23.057999999999982,20,109,112,119,110,24,23.179999999999982,0.6709999999999998,1.2809999999999993,2.500999999999998,20,4,7,5,110,4,7,7,2,0.5,18,3,6,L,0.2107272727272727,0.16775,0.183,0.35728571428571426
7,2,4,0,6,26.22999999999998,18,129,5,8,28,6,26.29099999999998,3.0499999999999976,0.427,2.8669999999999978,19,6,1,6,130,7,1,7,6,0.5,41,5.75,6,L,0.20223846153846153,0.4357142857142856,0.427,0.4095714285714285
7,3,5,0,6,21.471999999999984,16,109,3,48,56,11,21.532999999999983,9.637999999999993,2.9889999999999977,1.1589999999999994,17,17,12,5,110,46,13,5,6,0,21,5.25,6,L,0.19575454545454543,0.20952173913043476,0.2299230769230769,0.2318
7,3,6,0,3,32.51299999999998,20,166,28,31,35,29,33.061999999999976,0.183,6.038999999999995,3.4159999999999973,20,2,14,11,169,2,24,13,5,1,60,5,6,L,0.19563313609467453,0.0915,0.251625,0.26276923076923075
7,4,7,0,1,13.724999999999989,18,67,73,114,66,16,15.737999999999987,22.813999999999982,3.598999999999997,9.820999999999993,20,16,9,15,75,78,9,33,3,0,15,3.75,6,L,0.20984,0.29248717948717945,0.3998888888888888,0.29760606060606054
7,4,8,0,4,44.468999999999966,10,187,104,107,99,11,44.895999999999965,0.427,2.805999999999998,0.9759999999999995,11,2,10,3,188,2,17,5,2,0.5,18,3,6,L,0.23880851063829783,0.2135,0.16505882352941176,0.19519999999999998
7,5,9,0,10,38.12499999999997,16,173,89,96,72,69,39.10099999999997,1.524999999999999,7.8689999999999936,0.8539999999999996,20,6,12,3,179,6,35,4,3,0,14,3.5,6,L,0.21844134078212288,0.25416666666666665,0.2248285714285714,0.2135
7,5,10,0,3,28.486999999999977,17,133,32,34,55,77,35.684999999999974,1.7689999999999988,14.212999999999989,2.805999999999998,20,8,15,11,160,10,53,15,5,0,17,4.25,6,L,0.22303125,0.1769,0.2681698113207547,0.18706666666666666
8,1,1,0,9,25.80299999999998,13,115,63,61,40,22,26.53499999999998,0.5489999999999999,6.038999999999995,3.903999999999997,17,2,14,13,120,2,23,18,4,0,19,4.75,5,L,0.221125,0.27449999999999997,0.26256521739130434,0.21688888888888888
8,1,2,0,1,21.349999999999984,17,99,79,84,81,77,21.410999999999984,1.0369999999999995,3.0499999999999976,0.183,18,4,12,1,100,5,15,1,3,1,36,3,5,L,0.21411,0.2074,0.2033333333333333,0.183
8,2,3,0,7,12.01699999999999,17,57,13,19,24,21,18.726999999999986,0.7319999999999998,0.366,1.0369999999999995,20,3,2,10,82,3,2,10,6,1,72,6,5,L,0.22837804878048779,0.24399999999999997,0.183,0.1037
8,2,4,0,6,10.796999999999992,16,51,5,9,66,40,10.857999999999992,6.343999999999995,0.061,8.417999999999994,17,15,1,15,52,21,1,31,6,0,21,5.25,5,L,0.20880769230769228,0.30209523809523803,0.061,0.27154838709677415
8,3,5,0,5,27.02299999999998,19,130,21,39,43,63,60.57299999999995,0.061,0.122,2.0739999999999985,20,1,2,6,243,1,2,7,5,0,20,5,5,L,0.24927160493827155,0.061,0.061,0.29628571428571426
8,3,6,0,8,51.91099999999996,13,222,113,115,112,117,53.43599999999996,0.366,0.183,2.3789999999999982,18,2,1,12,227,2,1,17,2,1,24,2,5,L,0.2354008810572687,0.183,0.183,0.13994117647058824
8,4,7,0,5,24.15599999999998,16,114,38,41,11,69,25.68099999999998,0.6099999999999999,39.34499999999997,7.8689999999999936,20,5,18,16,118,5,164,33,5,0,20,5,5,L,0.21763559322033896,0.122,0.23990853658536582,0.23845454545454545
8,4,8,0,4,54.10699999999996,16,211,15,17,31,107,75.76199999999994,0.427,1.8299999999999987,0.6099999999999999,20,2,7,2,298,2,7,2,2,0,19,4.75,5,L,0.254234899328859,0.2135,0.2614285714285714,0.305
9,1,1,0,10,36.78299999999997,18,175,88,95,86,16,37.75899999999997,1.646999999999999,1.7079999999999989,0.5489999999999999,20,8,8,2,179,10,8,2,3,0.5,24,3.75,6,L,0.21094413407821228,0.16469999999999999,0.21349999999999997,0.27449999999999997
9,1,2,0,1,19.092999999999986,18,91,78,77,79,73,19.214999999999986,2.9279999999999977,0.244,1.3419999999999992,20,9,1,7,93,11,1,8,3,1,36,3,6,L,0.20661290322580644,0.2661818181818182,0.244,0.16775
9,2,3,0,5,28.181999999999977,14,144,42,45,44,17,28.730999999999977,2.3789999999999982,0.8539999999999996,1.7079999999999989,15,8,7,3,145,10,8,3,5,0.5,36,5.25,6,L,0.19814482758620688,0.2379,0.10675,0.5693333333333331
9,2,4,0,3,14.944999999999988,18,80,1,32,60,59,33.488999999999976,0.6709999999999998,0.244,2.9889999999999977,20,4,2,7,161,4,2,8,5,0,19,4.75,6,L,0.20800621118012422,0.16775,0.122,0.3736249999999999
9,3,5,0,8,45.017999999999965,13,187,118,111,119,2,47.82399999999996,2.0129999999999986,3.2939999999999974,3.842999999999997,16,7,7,13,191,8,11,20,2,0.5,18,3,6,L,0.2503874345549738,0.251625,0.2994545454545454,0.19215
9,3,6,0,2,57.156999999999954,18,262,59,53,34,18,58.43799999999995,5.550999999999996,1.585999999999999,3.598999999999997,20,12,4,11,270,20,5,13,4,0,19,4.75,6,L,0.216437037037037,0.27754999999999996,0.3172,0.27684615384615385
9,4,7,0,10,27.388999999999978,17,108,85,92,88,95,28.364999999999977,0.244,1.0369999999999995,1.585999999999999,20,1,6,4,111,1,6,5,3,1,36,3,6,L,0.25554054054054054,0.244,0.17283333333333334,0.3172
9,4,8,0,1,22.691999999999982,11,115,82,79,80,16,23.91199999999998,0.244,0.7319999999999998,8.783999999999994,20,1,4,13,124,1,4,33,3,0.5,24,3.75,6,L,0.19283870967741934,0.244,0.183,0.26618181818181813
9,5,9,0,5,45.261999999999965,19,213,48,41,42,101,45.444999999999965,0.244,0.305,10.491999999999992,20,1,2,15,214,1,2,45,5,0.5,32,4.25,6,L,0.21235981308411214,0.244,0.1525,0.23315555555555553
9,5,10,0,9,17.079999999999988,17,90,65,64,62,8,18.116999999999987,1.2199999999999993,0.305,3.1719999999999975,20,5,1,11,95,5,1,17,4,0.5,30,4.5,6,L,0.1907052631578947,0.24399999999999997,0.305,0.18658823529411764
10,1,1,0,6,21.654999999999983,18,104,1,11,8,52,21.959999999999983,1.8909999999999987,9.698999999999993,2.439999999999998,20,8,16,12,106,9,42,15,6,0.5,40,5.5,5,L,0.2071698113207547,0.2101111111111111,0.23092857142857143,0.16266666666666665
10,1,2,0,8,25.13199999999998,19,132,120,116,118,117,25.92499999999998,0.122,0.488,3.903999999999997,20,2,3,6,135,2,3,12,2,1,24,2,5,L,0.19203703703703703,0.061,0.16266666666666665,0.32533333333333325
10,2,3,0,9,44.956999999999965,13,193,65,72,16,63,46.237999999999964,3.659999999999997,1.8299999999999987,1.524999999999999,16,8,7,8,196,15,7,11,4,0.5,30,4.5,5,L,0.2359081632653061,0.24399999999999997,0.2614285714285714,0.13863636363636364
10,2,4,0,1,33.732999999999976,11,144,83,2,10,73,39.52799999999997,20.556999999999984,0.244,0.061,20,18,2,1,168,95,2,1,3,0,18,4.5,5,L,0.23528571428571426,0.21638947368421052,0.122,0.061
10,3,5,0,3,32.939999999999976,16,133,36,31,28,110,33.244999999999976,0.244,1.3419999999999992,11.95599999999999,17,2,8,15,134,2,9,46,5,0.5,32,4.25,5,L,0.24809701492537312,0.122,0.1491111111111111,0.25991304347826083
10,3,6,0,1,75.6400000000013,14,327,74,78,48,66,75.7620000000013,0.122,5.611999999999996,0.7319999999999998,15,1,14,5,328,1,17,5,3,0,15,3.75,5,L,0.23098170731707315,0.122,0.33011764705882346,0.1464
10,4,7,0,4,31.170999999999975,20,141,101,102,100,104,31.536999999999974,2.683999999999998,2.0739999999999985,4.818999999999996,20,8,9,13,144,10,11,26,2,1,24,2,5,L,0.21900694444444443,0.26839999999999997,0.18854545454545454,0.18534615384615385
10,4,8,0,2,7.502999999999994,15,34,53,10,7,56,7.807999999999994,11.77299999999999,4.7579999999999965,3.1719999999999975,19,13,12,9,38,40,19,11,4,0,20,5,5,L,0.2054736842105263,0.29432499999999995,0.25042105263157893,0.2883636363636363
11,1,1,0,2,29.218999999999976,18,135,53,49,13,16,31.719999999999974,0.5489999999999999,7.563999999999994,1.0369999999999995,20,2,14,3,145,2,31,4,4,0,20,5,6,L,0.21875862068965515,0.27449999999999997,0.24399999999999997,0.25925
11,1,2,0,8,36.17299999999997,18,185,110,115,1,113,37.63699999999997,0.183,0.6099999999999999,0.6709999999999998,20,2,2,3,190,2,3,4,2,0.5,18,3,6,L,0.1980894736842105,0.0915,0.20333333333333334,0.16775
11,2,3,0,9,28.303999999999977,18,131,63,70,7,66,29.523999999999976,0.6099999999999999,1.4029999999999991,1.1589999999999994,20,4,6,5,137,4,6,5,4,0.5,30,4.5,6,L,0.2155036496350365,0.1525,0.23383333333333334,0.23179999999999995
11,2,4,0,1,21.044999999999984,14,92,79,78,14,83,22.020999999999983,1.1589999999999994,1.3419999999999992,1.646999999999999,19,5,4,5,98,5,6,6,3,0.5,24,3.75,6,L,0.22470408163265304,0.2318,0.22366666666666665,0.27449999999999997
11,3,5,0,7,9.393999999999993,9,38,15,16,18,20,9.454999999999993,0.122,2.805999999999998,0.7929999999999997,10,1,7,4,39,1,11,4,6,1,72,6,6,L,0.2424358974358974,0.122,0.2550909090909091,0.19824999999999998
11,3,6,0,6,22.020999999999983,18,115,9,111,6,7,22.447999999999983,3.4159999999999973,5.672999999999996,1.8299999999999987,20,9,14,9,119,14,33,10,6,0.5,38,5,6,L,0.18863865546218486,0.24399999999999994,0.1719090909090909,0.183
11,4,7,0,7,6.8929999999999945,18,38,14,17,18,22,7.685999999999995,0.061,1.463999999999999,1.3419999999999992,20,1,5,6,41,1,6,7,6,1,72,6,6,L,0.18746341463414634,0.061,0.24399999999999997,0.1917142857142857
11,4,8,0,6,17.445999999999987,10,82,1,5,7,27,17.567999999999987,2.9889999999999977,6.404999999999995,2.500999999999998,11,10,13,8,83,16,23,11,6,0.5,41,5.75,6,L,0.21166265060240963,0.1868125,0.2784782608695652,0.22736363636363635
11,5,9,0,7,9.942999999999993,14,47,19,22,20,81,10.003999999999992,0.7929999999999997,2.0739999999999985,7.502999999999994,15,5,5,13,48,6,8,21,6,0.5,39,5.25,6,L,0.20841666666666667,0.13216666666666665,0.25925,0.3572857142857142
11,5,10,0,4,35.257999999999974,15,156,99,32,3,28,36.78299999999997,2.683999999999998,5.001999999999996,2.9889999999999977,20,12,12,11,163,16,21,16,2,0,18,4.5,6,L,0.22566257668711656,0.16774999999999998,0.23819047619047617,0.1868125
12,1,1,0,6,12.38299999999999,12,58,3,7,8,12,19.031999999999986,0.6099999999999999,2.0739999999999985,0.244,20,4,9,3,83,4,13,3,6,1,72,6,6,L,0.2293012048192771,0.1525,0.15953846153846155,0.08133333333333333
12,1,2,0,8,20.617999999999984,15,107,118,115,114,120,20.739999999999984,0.366,1.2809999999999993,0.427,16,2,5,3,108,2,6,5,2,1,24,2,6,L,0.19203703703703703,0.183,0.21349999999999997,0.0854
12,2,3,0,1,53.19199999999996,11,220,80,15,14,46,53.37499999999996,3.781999999999997,23.118999999999982,0.183,13,8,17,1,222,11,94,1,3,0,20,5,6,L,0.2404279279279279,0.34381818181818175,0.24594680851063827,0.183
12,2,4,0,10,15.859999999999987,19,79,92,86,88,93,16.04299999999999,1.2809999999999993,0.8539999999999996,7.563999999999994,20,9,5,13,80,9,6,31,3,1,36,3,6,L,0.20053749999999998,0.14233333333333334,0.14233333333333334,0.24399999999999997
12,3,5,0,6,17.567999999999987,15,95,1,12,8,84,17.628999999999987,3.476999999999997,1.463999999999999,2.1349999999999985,16,9,4,7,96,12,6,10,6,0.5,39,5.25,6,L,0.18363541666666666,0.28974999999999995,0.244,0.2135
12,3,6,0,7,28.608999999999977,15,141,14,22,16,48,28.730999999999977,1.524999999999999,13.48099999999999,1.3419999999999992,16,6,16,3,142,8,58,3,6,0.5,41,5.75,6,L,0.20233098591549295,0.190625,0.2324310344827586,0.44733333333333314
12,4,7,0,6,20.129999999999985,18,99,3,2,8,7,20.312999999999985,13.968999999999989,1.7689999999999988,1.7079999999999989,20,17,6,5,101,52,6,6,6,1,72,6,6,L,0.2011188118811881,0.2686346153846153,0.2948333333333332,0.2846666666666666
12,4,8,0,4,33.671999999999976,18,165,103,108,102,26,33.854999999999976,0.183,1.7079999999999989,3.781999999999997,19,2,7,9,166,2,8,16,2,0.5,17,2.75,6,L,0.20394578313253012,0.0915,0.21349999999999997,0.236375
12,5,9,0,7,40.74799999999997,15,186,21,18,13,16,40.80899999999997,1.0979999999999994,6.221999999999995,0.5489999999999999,16,3,13,3,187,4,32,3,6,1,72,6,6,L,0.21822994652406413,0.27449999999999997,0.19443749999999999,0.183
12,5,10,0,6,19.763999999999985,16,109,4,8,10,35,20.129999999999985,2.622999999999998,1.7079999999999989,2.500999999999998,19,10,8,7,112,14,9,9,6,0.5,41,5.75,6,L,0.17973214285714284,0.18735714285714286,0.18977777777777777,0.27788888888888885
13,1,1,0,2,23.057999999999982,19,124,54,55,56,26,24.33899999999998,0.5489999999999999,1.2199999999999993,4.269999999999997,20,2,6,10,133,2,8,17,4,0.5,29,4.25,6,L,0.183,0.27449999999999997,0.1525,0.2511764705882353
13,1,2,0,10,20.251999999999985,19,108,86,93,91,92,21.044999999999984,1.8299999999999987,2.3789999999999982,1.0369999999999995,20,10,7,6,111,10,11,6,3,1,36,3,6,L,0.18959459459459457,0.183,0.21627272727272726,0.1728333333333333
13,2,3,0,1,21.227999999999984,14,100,82,77,83,62,22.630999999999982,0.488,0.061,1.646999999999999,19,4,1,5,106,4,1,6,3,0.5,22,3.25,6,L,0.2135,0.122,0.061,0.27449999999999997
13,2,4,0,8,34.891999999999975,12,144,112,29,111,6,35.074999999999974,2.1349999999999985,0.122,2.9279999999999977,15,2,1,9,147,2,1,14,2,0,15,3.75,6,L,0.23860544217687074,1.0674999999999994,0.122,0.20914285714285713
13,3,5,0,6,22.874999999999982,20,108,6,8,7,104,22.935999999999982,2.2569999999999983,3.3549999999999973,7.685999999999994,20,10,7,13,109,11,10,33,6,0.5,38,5,6,L,0.21042201834862384,0.2051818181818182,0.33549999999999996,0.23290909090909087
13,3,6,0,3,21.471999999999984,17,100,34,65,13,17,24.76599999999998,9.637999999999993,8.295999999999994,8.295999999999994,20,15,16,14,110,37,32,45,5,0,21,5.25,6,L,0.22514545454545454,0.2604864864864864,0.25925,0.18435555555555552
13,4,7,0,4,31.414999999999974,17,138,98,107,103,108,36.72199999999997,0.061,0.8539999999999996,2.561999999999998,20,1,5,9,161,1,5,12,2,1,24,2,6,L,0.2280869565217391,0.061,0.1708,0.2135
13,4,8,0,10,53.19199999999996,13,237,91,88,61,10,53.74099999999996,0.9149999999999996,3.598999999999997,6.8319999999999945,15,5,11,14,239,6,16,26,3,0,16,4,6,L,0.22485774058577404,0.1525,0.22493749999999998,0.2627692307692307
13,5,9,0,2,19.763999999999985,20,84,58,51,45,22,20.068999999999985,0.7929999999999997,20.617999999999984,3.1719999999999975,20,5,17,12,86,5,84,14,4,0,19,4.75,6,L,0.23336046511627906,0.1586,0.24545238095238092,0.22657142857142853
13,5,10,0,10,45.139999999999965,20,217,88,85,28,7,45.200999999999965,2.2569999999999983,2.622999999999998,4.6969999999999965,20,7,7,13,218,8,13,20,3,0,17,4.25,6,L,0.20734403669724769,0.28212499999999996,0.20176923076923076,0.23484999999999998
14,1,1,0,9,39.34499999999997,19,184,68,64,65,85,41.05299999999997,1.9519999999999986,1.463999999999999,4.940999999999996,20,7,9,12,193,11,9,24,4,0.5,27,3.75,6,L,0.21270984455958547,0.17745454545454545,0.16266666666666665,0.20587499999999997
14,1,2,0,6,19.519999999999985,17,77,11,60,39,3,19.580999999999985,2.3789999999999982,4.086999999999997,0.6099999999999999,18,7,8,2,78,10,18,2,6,0,21,5.25,6,L,0.25103846153846154,0.23789999999999997,0.22705555555555554,0.30499999999999994
14,2,3,0,4,19.214999999999986,19,96,107,98,53,104,20.068999999999985,0.061,9.515999999999993,0.9759999999999995,20,1,16,4,100,1,44,4,2,0.5,16,2.5,6,L,0.20068999999999998,0.061,0.21627272727272726,0.244
14,2,4,0,9,42.27299999999997,18,197,67,63,32,66,43.24899999999997,0.427,2.0739999999999985,3.598999999999997,20,3,6,9,203,3,7,15,4,0.5,29,4.25,6,L,0.21304926108374383,0.14233333333333334,0.29628571428571426,0.2399333333333333
14,3,5,0,8,26.22999999999998,17,125,15,17,18,115,48.92199999999996,0.244,9.637999999999993,0.061,20,2,17,1,221,2,43,1,2,0.5,38,5,6,L,0.22136651583710407,0.122,0.2241395348837209,0.061
14,3,6,0,6,21.837999999999983,19,91,1,2,3,4,22.996999999999982,7.014999999999994,2.805999999999998,0.5489999999999999,20,13,10,3,96,21,13,3,6,1,72,6,6,L,0.2395520833333333,0.334047619047619,0.21584615384615385,0.183
14,4,7,0,10,25.37599999999998,20,121,88,91,86,85,25.43699999999998,0.122,2.3789999999999982,7.624999999999994,20,2,9,14,122,2,12,34,3,1,36,3,6,L,0.2085,0.061,0.19824999999999998,0.22426470588235292
14,4,8,0,1,55.570999999999955,17,242,78,84,77,75,56.851999999999954,1.2199999999999993,0.305,3.476999999999997,20,4,2,10,245,4,3,15,3,1,36,3,6,L,0.2320489795918367,0.305,0.10166666666666667,0.23179999999999995
14,5,9,0,10,30.011999999999976,14,137,89,4,1,91,32.32999999999998,15.554999999999987,5.062999999999996,0.6099999999999999,20,19,14,2,145,69,24,2,3,0,18,4.5,6,L,0.2229655172413793,0.22543478260869565,0.21095833333333333,0.30499999999999994
14,5,10,0,7,26.04699999999998,14,108,13,23,17,47,26.10799999999998,3.9649999999999967,0.5489999999999999,10.247999999999992,15,11,4,15,109,14,5,45,6,0.5,41,5.75,6,L,0.23952293577981648,0.28321428571428564,0.1098,0.22773333333333332
15,1,1,0,1,38.97899999999997,20,168,79,80,73,16,40.38199999999997,0.244,5.7339999999999955,0.7929999999999997,20,2,9,1,179,2,20,1,3,0.5,24,3.75,5,L,0.22559776536312848,0.122,0.28669999999999995,0.7929999999999997
15,1,2,0,10,35.440999999999974,14,149,85,11,89,88,36.53899999999997,2.1349999999999985,0.9149999999999996,0.305,19,7,4,2,154,9,4,2,3,0.5,24,3.75,5,L,0.23726623376623376,0.2372222222222222,0.22875,0.1525
15,2,3,0,1,21.288999999999984,14,90,76,84,73,74,24.82699999999998,0.6709999999999998,0.6709999999999998,0.244,20,2,4,2,103,2,4,2,3,1,36,3,5,L,0.24103883495145628,0.3355,0.16775,0.122
15,2,4,0,9,41.72399999999997,15,190,66,72,22,24,44.163999999999966,0.244,3.4159999999999973,2.805999999999998,18,3,7,7,193,3,10,9,4,0,20,5,5,L,0.22882901554404142,0.08133333333333333,0.3415999999999999,0.31177777777777776
15,3,5,0,4,70.4550000000007,9,272,103,102,11,27,70.5160000000007,0.9149999999999996,1.9519999999999986,6.8929999999999945,10,3,5,14,273,3,8,30,2,0,15,3.75,5,L,0.2583003663003663,0.305,0.244,0.22976666666666665
15,3,6,0,7,22.142999999999983,15,124,17,14,24,19,22.203999999999983,0.9149999999999996,0.6709999999999998,14.639999999999988,16,3,5,17,125,3,5,67,6,1,72,6,5,L,0.17763199999999998,0.305,0.13419999999999999,0.21850746268656715
15,4,7,0,4,43.980999999999966,20,183,107,100,106,83,44.346999999999966,2.439999999999998,0.9759999999999995,0.9759999999999995,20,5,5,2,186,6,5,4,2,0.5,15,2.25,5,L,0.23842473118279567,0.40666666666666657,0.19519999999999998,0.244
15,4,8,0,8,39.89399999999997,16,199,112,34,117,26,42.63899999999997,1.0979999999999994,1.9519999999999986,4.635999999999997,20,3,5,12,210,3,9,21,2,0,14,3.5,5,L,0.20304285714285714,0.36599999999999994,0.21688888888888888,0.22076190476190474
16,1,1,0,9,30.194999999999975,17,132,64,66,1,2,30.255999999999975,0.9149999999999996,11.406999999999991,0.122,18,5,17,1,133,5,46,1,4,0,20,5,6,L,0.22748872180451124,0.183,0.24797826086956518,0.122
16,1,2,0,4,19.397999999999985,15,85,101,99,19,15,19.885999999999985,6.587999999999995,4.574999999999997,8.966999999999993,17,13,9,14,87,30,14,39,2,0,16,4,6,L,0.22857471264367815,0.2196,0.32678571428571423,0.2299230769230769
16,2,3,0,3,28.059999999999977,13,122,27,30,33,35,28.303999999999977,1.2809999999999993,1.8909999999999987,2.3789999999999982,16,7,8,7,125,7,10,7,5,1,60,5,6,L,0.226432,0.183,0.1891,0.3398571428571428
16,2,4,0,8,26.96199999999998,20,126,110,111,109,113,27.510999999999978,0.7319999999999998,3.4159999999999973,0.061,20,5,9,1,130,5,14,1,2,1,24,2,6,L,0.2116230769230769,0.1464,0.244,0.061
16,3,5,0,9,70.94300000000075,14,299,62,44,3,77,71.06500000000075,1.1589999999999994,1.646999999999999,13.41999999999999,16,6,6,15,301,6,8,62,4,0,18,4.5,6,L,0.23609634551495015,0.19316666666666665,0.20587499999999997,0.2164516129032258
16,3,6,0,2,13.11499999999999,9,61,55,59,58,52,13.663999999999989,1.7689999999999988,0.8539999999999996,3.476999999999997,12,6,4,11,64,8,5,16,4,1,48,4,6,L,0.21349999999999997,0.221125,0.1708,0.2173125
16,4,7,0,8,12.44399999999999,16,58,113,109,49,120,13.41999999999999,5.916999999999995,15.432999999999987,3.598999999999997,18,15,16,12,60,28,54,14,2,0.5,16,2.5,6,L,0.22366666666666665,0.21132142857142855,0.28579629629629627,0.25707142857142856
16,4,8,0,1,27.571999999999978,14,132,81,28,73,67,33.488999999999976,4.6969999999999965,0.122,1.2809999999999993,20,11,2,3,149,17,2,3,3,0,15,3.75,6,L,0.22475838926174493,0.2762941176470588,0.061,0.42699999999999994
16,5,9,0,2,35.684999999999974,19,145,60,58,52,8,36.23399999999997,0.6099999999999999,0.7929999999999997,6.526999999999995,20,4,4,13,148,4,4,26,4,0.5,30,4.5,6,L,0.2448243243243243,0.1525,0.19824999999999998,0.25103846153846154
16,5,10,0,8,13.907999999999989,17,79,13,115,78,61,43.55399999999997,0.061,0.7319999999999998,1.8909999999999987,20,1,1,7,207,1,1,7,2,0,15,3.75,6,L,0.21040579710144927,0.061,0.7319999999999998,0.27014285714285713
17,1,1,0,8,53.67999999999996,16,230,118,112,109,110,53.74099999999996,0.427,3.720999999999997,0.061,17,4,12,1,231,4,18,1,2,1,24,2,5,L,0.23264502164502163,0.10675,0.20672222222222222,0.061
17,1,2,0,3,41.66299999999997,17,193,91,34,62,29,43.00499999999997,0.6099999999999999,2.805999999999998,1.0369999999999995,19,4,10,3,195,5,14,5,5,0,17,4.25,5,L,0.22053846153846152,0.122,0.20042857142857143,0.2074
17,2,3,0,10,27.205999999999978,19,135,85,90,89,42,28.425999999999977,0.8539999999999996,0.305,5.062999999999996,20,4,2,12,140,4,2,19,3,0.5,23,3.5,5,L,0.20304285714285714,0.21349999999999997,0.1525,0.26647368421052625
17,2,4,0,8,18.360999999999986,16,95,115,119,116,14,19.946999999999985,2.683999999999998,0.122,4.6969999999999965,20,12,1,11,103,15,1,19,2,0.5,18,3,5,L,0.19366019417475727,0.1789333333333333,0.122,0.24721052631578946
17,3,5,0,2,27.327999999999978,15,119,52,39,2,54,28.242999999999977,9.515999999999993,2.561999999999998,0.061,19,14,6,1,124,36,9,1,4,0,19,4.75,5,L,0.22776612903225804,0.2643333333333333,0.2846666666666666,0.061
17,3,6,0,7,25.49799999999998,16,121,16,15,24,63,25.55899999999998,3.476999999999997,2.3789999999999982,3.476999999999997,17,10,8,9,122,17,10,11,6,0.5,40,5.5,5,L,0.2095,0.20452941176470588,0.23789999999999997,0.3160909090909091
17,4,7,0,9,41.60199999999997,15,179,1,5,72,94,54.04599999999996,8.173999999999994,0.6099999999999999,1.3419999999999992,20,17,3,4,234,30,3,4,4,0,19,4.75,5,L,0.23096581196581192,0.27246666666666663,0.20333333333333334,0.3355
17,4,8,0,8,37.75899999999997,19,165,118,52,13,48,40.32099999999997,3.1109999999999975,9.088999999999993,7.502999999999994,20,11,16,16,177,16,41,34,2,0,17,4.25,5,L,0.22780225988700561,0.19443749999999999,0.22168292682926827,0.22067647058823528
18,1,1,0,3,18.177999999999987,19,92,94,91,16,70,44.529999999999966,10.796999999999992,0.6709999999999998,0.061,20,18,4,1,193,46,4,1,5,0,16,4,6,L,0.23072538860103625,0.2347173913043478,0.16775,0.061
18,1,2,0,1,27.388999999999978,19,132,73,81,42,51,28.242999999999977,1.0369999999999995,2.9889999999999977,1.7079999999999989,20,3,8,9,138,4,12,9,3,0,15,3.75,6,L,0.20465942028985507,0.25925,0.2490833333333333,0.18977777777777777
18,2,3,0,2,39.52799999999997,14,180,59,58,45,54,40.38199999999997,1.9519999999999986,2.8669999999999978,0.5489999999999999,19,7,8,3,186,9,13,3,4,0.5,29,4.25,6,L,0.21710752688172041,0.21688888888888888,0.2205384615384615,0.183
18,2,4,0,3,36.41699999999997,18,169,34,32,31,35,37.14899999999997,0.061,0.122,0.6099999999999999,20,1,1,2,174,1,1,2,5,1,60,5,6,L,0.2135,0.061,0.122,0.305
18,3,5,0,8,15.249999999999988,17,77,113,117,120,96,16.652999999999988,0.366,1.3419999999999992,7.563999999999994,20,3,7,12,84,3,9,36,2,0.5,15,2.25,6,L,0.19824999999999998,0.122,0.1491111111111111,0.2101111111111111
18,3,6,0,2,27.571999999999978,18,131,56,22,50,55,27.754999999999978,1.2199999999999993,1.7079999999999989,0.305,19,7,6,1,132,8,7,1,4,0.5,30,4.5,6,L,0.2102651515151515,0.15249999999999997,0.244,0.305
18,4,7,0,9,29.889999999999976,16,140,65,63,66,69,30.682999999999975,0.9759999999999995,2.0739999999999985,2.9279999999999977,20,8,9,9,144,8,11,14,4,1,48,4,6,L,0.21307638888888888,0.122,0.18854545454545454,0.20914285714285713
18,4,8,0,7,17.811999999999987,17,84,20,16,21,24,20.861999999999984,4.513999999999997,0.6709999999999998,2.439999999999998,20,12,5,8,102,21,6,9,6,1,72,6,6,L,0.20452941176470588,0.21495238095238095,0.11183333333333333,0.2711111111111111
18,5,9,0,5,56.973999999999954,15,251,41,42,37,87,57.64499999999995,0.6709999999999998,0.061,8.539999999999994,19,3,1,16,255,4,1,43,5,0.5,33,4.5,6,L,0.22605882352941176,0.16775,0.061,0.1986046511627907
18,5,10,0,6,17.140999999999988,17,71,3,99,30,11,17.201999999999988,7.9299999999999935,1.9519999999999986,0.7929999999999997,18,12,8,5,72,30,10,5,6,0,19,4.75,6,L,0.23891666666666664,0.2643333333333333,0.19519999999999998,0.1586
19,1,1,0,4,13.785999999999989,11,58,107,106,3,7,14.700999999999988,0.7929999999999997,1.7689999999999988,17.750999999999987,13,2,9,15,60,2,9,70,2,0,16,4,6,L,0.24501666666666666,0.3964999999999999,0.19655555555555554,0.25358571428571425
19,1,2,0,10,29.279999999999976,19,130,89,94,93,87,29.584999999999976,0.7319999999999998,0.305,0.7929999999999997,20,5,3,3,132,5,3,4,3,1,36,3,6,L,0.22412878787878787,0.1464,0.10166666666666667,0.19824999999999998
19,2,3,0,3,18.360999999999986,18,86,6,34,25,51,30.01199999999998,0.244,0.183,4.086999999999997,20,2,2,12,134,2,2,18,5,0,20,5,6,L,0.22397014925373132,0.122,0.0915,0.22705555555555554
19,2,4,0,7,14.212999999999989,19,83,18,14,20,19,14.883999999999988,7.807999999999994,0.061,0.122,20,10,1,1,87,26,1,1,6,1,72,6,6,L,0.17108045977011493,0.3003076923076923,0.061,0.122
19,3,5,0,1,26.04699999999998,17,106,79,84,75,27,26.59599999999998,0.6099999999999999,1.7079999999999989,2.0739999999999985,20,2,5,7,109,2,7,10,3,0.5,23,3.5,6,L,0.24399999999999997,0.305,0.24399999999999997,0.2074
19,3,6,0,7,23.72899999999998,18,124,22,19,17,13,23.78999999999998,0.122,2.9279999999999977,0.5489999999999999,19,1,9,1,125,1,13,2,6,1,72,6,6,L,0.19032,0.122,0.2252307692307692,0.27449999999999997
19,4,7,0,8,43.30999999999997,18,200,120,109,115,118,43.43199999999997,0.061,0.5489999999999999,2.3789999999999982,19,1,2,11,201,1,3,12,2,1,24,2,6,L,0.21607960199004972,0.061,0.183,0.19824999999999998
19,4,8,0,10,47.09199999999996,16,206,90,91,94,106,48.55599999999996,1.7689999999999988,0.183,30.926999999999975,20,8,2,17,214,11,2,127,3,0.5,20,2.75,6,L,0.22689719626168223,0.1608181818181818,0.0915,0.24351968503937005
19,5,9,0,10,57.94999999999995,16,242,88,92,8,1,58.55999999999995,1.646999999999999,1.2809999999999993,0.5489999999999999,19,10,9,1,245,12,11,1,3,0,18,4.5,6,L,0.23902040816326528,0.13724999999999998,0.11645454545454545,0.5489999999999999
19,5,10,0,2,38.91799999999997,17,178,14,39,83,38,92.35399999999993,0.061,1.0369999999999995,2.622999999999998,20,1,7,6,389,1,7,10,4,0,19,4.75,6,L,0.23741388174807196,0.061,0.14814285714285713,0.2623
20,1,1,0,8,18.177999999999987,16,83,113,119,112,2,20.251999999999985,0.488,0.7319999999999998,2.3179999999999983,20,2,3,7,91,2,3,11,2,0.5,18,3,6,L,0.22254945054945052,0.244,0.24399999999999997,0.21072727272727274
20,1,2,0,5,28.669999999999977,16,120,14,48,38,43,30.621999999999975,2.805999999999998,2.2569999999999983,1.8299999999999987,20,6,9,7,130,7,10,8,5,0.5,36,5.25,6,L,0.23555384615384614,0.40085714285714275,0.22569999999999998,0.22874999999999995
20,2,3,0,1,30.011999999999976,17,139,84,73,81,22,30.987999999999975,0.183,2.500999999999998,4.635999999999997,20,3,8,11,142,3,12,15,3,0.5,24,3.75,6,L,0.21822535211267605,0.061,0.20841666666666664,0.3090666666666666
20,2,4,0,9,24.58299999999998,17,115,3,95,94,6,37.27099999999997,3.9649999999999967,2.744999999999998,0.6709999999999998,20,13,10,6,170,16,14,6,4,0,18,4.5,6,L,0.21924117647058822,0.2478125,0.19607142857142856,0.11183333333333333
20,3,5,0,2,17.262999999999987,17,74,53,49,60,59,18.787999999999986,0.366,3.2939999999999974,0.061,20,3,10,1,82,3,11,1,4,1,48,4,6,L,0.22912195121951218,0.122,0.2994545454545454,0.061
20,3,6,0,4,34.647999999999975,20,149,106,108,99,101,34.708999999999975,1.2199999999999993,0.9149999999999996,0.122,20,6,4,1,150,6,5,1,2,1,24,2,6,L,0.2313933333333333,0.2033333333333333,0.183,0.122
20,4,7,0,6,14.822999999999988,14,73,7,9,2,10,15.737999999999987,1.0979999999999994,8.051999999999994,2.622999999999998,19,3,15,4,78,5,34,7,6,1,72,6,6,L,0.20176923076923076,0.21959999999999996,0.23682352941176468,0.3747142857142856
20,4,8,0,2,54.777999999999956,15,225,53,23,49,55,56.790999999999954,0.427,1.9519999999999986,0.9149999999999996,19,2,8,4,230,2,10,4,4,0.5,30,4.5,6,L,0.2469173913043478,0.2135,0.19519999999999998,0.22875
20,5,9,0,2,23.301999999999982,13,110,13,49,59,56,41.66299999999997,0.122,0.244,0.6099999999999999,20,2,1,3,197,2,1,3,4,0.5,30,4.5,6,L,0.21148730964467002,0.061,0.244,0.20333333333333334
20,5,10,0,6,16.28699999999999,16,88,1,5,7,27,16.34799999999999,0.427,2.1349999999999985,93.75700000000339,17,2,9,16,89,2,9,401,6,0.5,41,5.75,6,L,0.18368539325842695,0.2135,0.23722222222222222,0.2338079800498753
21,1,1,0,10,34.769999999999975,16,162,92,94,2,91,38.12499999999997,5.123999999999996,7.624999999999994,0.427,20,13,13,4,177,19,32,4,3,0.5,24,3.75,5,L,0.21539548022598867,0.26968421052631575,0.23828124999999997,0.10675
21,1,2,0,5,59.77999999999995,12,259,40,18,72,15,62.95199999999995,2.744999999999998,1.7689999999999988,5.245999999999996,20,8,7,14,276,14,7,25,5,0,21,5.25,5,L,0.2280869565217391,0.19607142857142854,0.2527142857142857,0.20984
21,2,3,0,2,23.362999999999982,13,109,54,56,3,49,28.608999999999977,0.061,6.221999999999995,0.061,20,1,16,1,138,1,36,1,4,0.5,30,4.5,5,L,0.20731159420289855,0.061,0.17283333333333334,0.061
21,2,4,0,1,29.584999999999976,20,137,83,80,74,84,30.011999999999976,0.8539999999999996,1.2199999999999993,0.122,20,5,4,1,140,5,5,1,3,1,36,3,5,L,0.21437142857142855,0.1708,0.244,0.122
21,3,5,0,3,23.60699999999998,18,111,13,34,27,26,27.510999999999978,0.6099999999999999,0.183,0.122,20,4,1,1,121,4,1,1,5,0.5,36,5.25,5,L,0.22736363636363632,0.1525,0.183,0.122
21,3,6,0,9,83.4480000000022,16,351,1,72,62,103,85.4610000000022,0.122,0.427,1.0369999999999995,20,1,3,7,359,1,3,8,4,0,16,4,5,L,0.23805292479108633,0.122,0.14233333333333334,0.129625
21,4,7,0,8,51.30099999999996,17,221,114,118,14,16,55.021999999999956,1.1589999999999994,43.00499999999997,0.061,20,4,18,1,240,4,173,1,2,0,16,4,5,L,0.22925833333333331,0.28974999999999995,0.2485838150289017,0.061
21,4,8,0,5,37.39299999999997,20,179,48,39,47,41,38.61299999999997,0.8539999999999996,0.061,1.3419999999999992,20,3,1,3,187,3,1,5,5,1,60,5,5,L,0.20648663101604278,0.2846666666666666,0.061,0.26839999999999997
22,1,1,0,5,42.27299999999997,14,157,38,46,48,23,43.12699999999997,1.4029999999999991,3.537999999999997,0.305,19,8,10,3,162,10,13,4,5,0.5,36,5.25,6,L,0.26621604938271604,0.14029999999999998,0.27215384615384614,0.07625
22,1,2,0,8,33.915999999999976,19,156,116,119,118,8,38.12499999999997,0.122,1.1589999999999994,6.8319999999999945,20,2,7,16,179,2,7,29,2,0.5,18,3,6,L,0.21298882681564243,0.061,0.16557142857142856,0.23558620689655171
22,2,3,0,5,15.249999999999988,17,80,91,16,24,40,63.43999999999995,3.659999999999997,0.427,0.244,20,9,2,3,267,10,2,3,5,0,20,5,6,L,0.23760299625468162,0.36599999999999994,0.2135,0.08133333333333333
22,2,4,0,3,33.671999999999976,14,150,34,33,30,12,33.915999999999976,0.7319999999999998,0.366,3.2939999999999974,16,5,3,9,152,5,3,16,5,0.5,36,5.25,6,L,0.2231315789473684,0.1464,0.122,0.20587499999999997
22,3,5,0,6,16.04299999999999,19,82,1,11,39,9,16.10399999999999,7.441999999999994,5.123999999999996,5.123999999999996,20,14,12,13,83,39,22,28,6,0.5,41,5.75,6,L,0.19402409638554216,0.1908205128205128,0.23290909090909087,0.183
22,3,6,0,1,39.16199999999997,19,166,73,78,76,35,39.64999999999997,1.646999999999999,0.427,4.269999999999997,20,6,4,12,167,7,5,17,3,0.5,23,3.5,6,L,0.23742514970059878,0.2352857142857143,0.0854,0.2511764705882353
22,4,7,0,10,39.22299999999997,18,181,94,90,96,61,41.17499999999997,1.8299999999999987,2.2569999999999983,5.062999999999996,20,6,9,9,189,7,9,18,3,0.5,22,3.25,6,L,0.21785714285714283,0.2614285714285714,0.25077777777777777,0.28127777777777774
22,4,8,0,6,13.785999999999989,11,60,11,9,4,8,14.334999999999988,2.744999999999998,1.463999999999999,2.439999999999998,14,9,5,8,63,13,8,11,6,1,72,6,6,L,0.22753968253968251,0.21115384615384614,0.183,0.22181818181818178
22,5,9,0,3,53.92399999999996,12,202,27,30,18,89,54.04599999999996,2.683999999999998,6.343999999999995,0.9759999999999995,14,7,15,2,204,10,28,2,5,0,19,4.75,6,L,0.26493137254901955,0.26839999999999997,0.22657142857142853,0.48799999999999993
22,5,10,0,6,14.212999999999989,12,71,3,7,9,40,14.273999999999988,1.463999999999999,0.6709999999999998,9.759999999999993,13,9,1,15,72,10,1,40,6,0.5,41,5.75,6,L,0.19824999999999998,0.1464,0.6709999999999998,0.24399999999999997
23,1,1,0,4,26.47399999999998,17,132,108,107,98,10,26.90099999999998,0.366,2.0739999999999985,1.524999999999999,20,3,12,5,137,3,12,8,2,0.5,18,3,6,L,0.19635766423357665,0.122,0.17283333333333334,0.190625
23,1,2,0,8,13.29799999999999,14,68,118,120,43,13,14.212999999999989,2.683999999999998,8.112999999999994,2.1349999999999985,17,9,16,9,71,13,44,11,2,0,15,3.75,6,L,0.20018309859154929,0.20646153846153845,0.18438636363636363,0.1940909090909091
23,2,3,0,7,25.37599999999998,18,126,20,64,16,15,26.16899999999998,10.918999999999992,0.488,0.7319999999999998,20,14,5,3,129,38,6,3,6,0.5,40,5.5,6,L,0.20286046511627906,0.2873421052631579,0.08133333333333333,0.244
23,2,4,0,2,32.14699999999998,17,135,57,53,12,32,34.281999999999975,1.1589999999999994,3.3549999999999973,5.367999999999996,20,4,11,13,145,4,19,28,4,0,19,4.75,6,L,0.23642758620689652,0.28974999999999995,0.17657894736842106,0.1917142857142857
23,3,5,0,9,25.07099999999998,18,115,66,65,62,21,25.43699999999998,0.5489999999999999,1.2809999999999993,13.785999999999989,20,4,6,16,117,4,6,65,4,0.5,30,4.5,6,L,0.21741025641025638,0.13724999999999998,0.2135,0.21209230769230766
23,3,6,0,8,22.081999999999983,17,101,4,110,1,112,24.64399999999998,5.367999999999996,13.41999999999999,5.062999999999996,20,12,18,17,112,23,63,21,2,0,16,4,6,L,0.22003571428571428,0.23339130434782607,0.213015873015873,0.24109523809523806
23,4,7,0,2,13.23699999999999,14,60,56,58,59,101,19.946999999999985,2.805999999999998,0.061,16.28699999999999,20,8,1,14,85,10,1,58,4,0.5,26,3.5,6,L,0.2346705882352941,0.28059999999999996,0.061,0.28081034482758616
23,4,8,0,6,25.31499999999998,16,131,3,2,113,10,25.37599999999998,2.805999999999998,4.635999999999997,4.574999999999997,17,7,12,11,132,10,21,19,6,0.5,38,5,6,L,0.19224242424242424,0.28059999999999996,0.22076190476190474,0.24078947368421053
23,5,9,0,9,58.74299999999995,15,255,4,36,115,70,76.18899999999994,0.366,0.183,0.9149999999999996,20,1,2,4,327,1,2,4,4,0,17,4.25,6,L,0.2329938837920489,0.366,0.0915,0.22875
23,5,10,0,2,23.48499999999998,18,111,18,97,104,79,103.6390000000018,0.6099999999999999,0.305,0.061,20,2,2,1,480,2,2,1,4,0,13,3.25,6,L,0.21591458333333333,0.305,0.1525,0.061
24,1,1,0,8,25.74199999999998,19,112,114,110,115,55,26.16899999999998,0.7929999999999997,2.0739999999999985,4.208999999999997,20,2,9,8,114,2,12,13,2,0.5,16,2.5,6,L,0.22955263157894734,0.39649999999999996,0.17283333333333334,0.32376923076923075
24,1,2,0,1,17.262999999999987,15,92,80,13,14,36,17.384999999999987,7.136999999999994,13.48099999999999,0.122,17,15,15,1,94,39,60,1,3,0,20,5,6,L,0.18494680851063827,0.183,0.22468333333333332,0.122
24,2,3,0,2,31.963999999999974,18,142,58,50,28,53,34.342999999999975,2.0129999999999986,1.7079999999999989,1.463999999999999,20,5,7,8,150,5,7,9,4,0.5,29,4.25,6,L,0.22895333333333331,0.4025999999999999,0.244,0.16266666666666663
24,2,4,0,6,26.83999999999998,16,131,7,11,2,3,26.90099999999998,3.476999999999997,0.061,8.234999999999994,17,9,1,15,132,14,1,46,6,1,72,6,6,L,0.20379545454545453,0.24835714285714283,0.061,0.17902173913043476
24,3,5,0,7,56.790999999999954,13,243,13,24,39,23,56.851999999999954,1.4029999999999991,3.781999999999997,1.2809999999999993,14,7,11,4,244,7,18,6,6,0.5,41,5.75,6,L,0.23299999999999998,0.20042857142857143,0.2101111111111111,0.2135
24,3,6,0,3,17.811999999999987,16,86,25,33,32,1,19.458999999999985,1.7689999999999988,0.366,12.13899999999999,20,4,2,16,92,5,2,49,5,0.5,36,5.25,6,L,0.2115108695652174,0.35379999999999995,0.183,0.247734693877551
24,4,7,0,3,32.32999999999998,17,150,34,36,104,61,34.037999999999975,1.8299999999999987,7.197999999999994,3.0499999999999976,20,6,14,10,157,7,31,11,5,0,16,4,6,L,0.21680254777070063,0.2614285714285714,0.23219354838709677,0.2772727272727272
24,4,8,0,6,15.920999999999987,17,71,2,1,8,41,16.22599999999999,2.622999999999998,2.3179999999999983,14.273999999999988,19,9,10,16,73,10,14,58,6,0.5,41,5.75,6,L,0.2222739726027397,0.2623,0.16557142857142856,0.24610344827586203
24,5,9,0,3,20.434999999999985,17,80,30,28,33,34,20.556999999999984,2.3789999999999982,1.2809999999999993,2.3789999999999982,19,11,7,8,82,12,8,12,5,1,60,5,6,L,0.2506951219512195,0.19824999999999995,0.160125,0.19824999999999998
24,5,10,0,5,61.60999999999995,13,253,42,66,47,44,62.52499999999995,3.598999999999997,1.4029999999999991,6.587999999999995,18,12,7,15,258,15,8,34,5,0.5,34,4.75,6,L,0.24234496124031005,0.2399333333333333,0.175375,0.19376470588235295
25,1,1,0,4,17.689999999999987,17,78,104,97,99,103,18.665999999999986,0.7929999999999997,1.1589999999999994,0.183,20,5,5,1,82,5,5,1,2,1,24,2,6,L,0.2276341463414634,0.1586,0.23179999999999998,0.183
25,1,2,0,3,39.89399999999997,15,178,61,93,3,29,50.62999999999996,2.683999999999998,2.439999999999998,0.305,20,10,7,2,223,11,8,2,5,0,18,4.5,6,L,0.2270403587443946,0.24399999999999997,0.30499999999999994,0.1525
25,2,3,0,1,43.06599999999997,12,175,75,82,3,80,43.18799999999997,1.2199999999999993,6.8319999999999945,2.9279999999999977,13,5,14,12,176,6,28,15,3,0.5,24,3.75,6,L,0.2453863636363636,0.20333333333333334,0.24399999999999997,0.19519999999999998
25,2,4,0,5,13.602999999999989,15,55,43,44,39,88,13.663999999999989,2.0129999999999986,3.9649999999999967,8.661999999999994,16,5,10,13,56,7,15,36,5,0.5,33,4.5,6,L,0.24399999999999997,0.2875714285714286,0.2643333333333333,0.2406111111111111
25,3,5,0,4,70.02800000000065,12,292,100,105,22,57,70.27200000000065,2.500999999999998,4.208999999999997,1.646999999999999,14,10,12,4,294,12,22,4,2,0,14,3.5,6,L,0.23902040816326528,0.20841666666666664,0.1913181818181818,0.4117499999999999
25,3,6,0,8,36.35599999999997,20,174,116,115,67,42,36.53899999999997,2.3179999999999983,3.3549999999999973,1.585999999999999,20,5,12,6,176,7,18,7,2,0,13,3.25,6,L,0.20760795454545453,0.33114285714285707,0.18638888888888888,0.2265714285714285
25,4,7,0,6,14.212999999999989,20,76,4,1,9,12,14.395999999999988,10.125999999999992,0.122,0.122,20,14,1,1,78,47,1,1,6,1,72,6,6,L,0.18456410256410255,0.21544680851063827,0.122,0.122
25,4,8,0,10,11.650999999999991,20,64,69,88,93,89,24.64399999999998,0.5489999999999999,1.3419999999999992,0.366,20,2,6,2,117,2,6,3,3,0.5,22,3.25,6,L,0.2106324786324786,0.27449999999999997,0.22366666666666662,0.122
25,5,9,0,10,22.569999999999983,12,120,88,91,23,28,22.996999999999982,5.855999999999995,4.025999999999997,5.123999999999996,14,16,8,11,122,34,17,19,3,0,17,4.25,6,L,0.1885,0.17223529411764704,0.23682352941176468,0.26968421052631575
25,5,10,0,1,35.684999999999974,16,148,5,49,46,77,65.94099999999995,0.183,0.183,0.061,20,2,2,1,284,2,2,1,3,0,18,4.5,6,L,0.23218661971830984,0.0915,0.0915,0.061
26,1,1,0,9,20.922999999999984,17,90,69,67,64,68,21.776999999999983,0.8539999999999996,0.061,6.8929999999999945,20,2,1,13,94,2,1,31,4,1,48,4,5,L,0.23167021276595742,0.4269999999999998,0.061,0.2223548387096774
26,1,2,0,4,19.702999999999985,18,102,105,99,102,103,20.800999999999984,0.061,0.7319999999999998,1.646999999999999,20,1,4,9,107,1,4,11,2,1,24,2,5,L,0.1944018691588785,0.061,0.183,0.14972727272727274
26,2,3,0,3,60.08499999999995,11,259,27,29,25,20,60.93899999999995,0.366,0.244,6.953999999999994,16,2,1,14,265,2,1,30,5,0.5,36,5.25,5,L,0.2299584905660377,0.183,0.244,0.23179999999999995
26,2,4,0,4,24.09499999999998,20,117,97,98,48,100,25.86399999999998,0.061,1.646999999999999,1.7079999999999989,20,1,3,4,122,1,3,5,2,0.5,17,2.75,5,L,0.212,0.061,0.5489999999999998,0.3415999999999999
26,3,5,0,7,10.308999999999992,16,55,16,17,18,20,10.369999999999992,6.282999999999995,1.524999999999999,0.183,17,13,5,2,56,24,5,2,6,1,72,6,5,L,0.18517857142857141,0.26179166666666664,0.3049999999999999,0.0915
26,3,6,0,6,52.70399999999996,17,233,5,12,7,36,53.61899999999996,2.744999999999998,0.7319999999999998,12.99299999999999,19,11,6,14,235,13,6,48,6,0.5,41,5.75,5,L,0.22816595744680848,0.21115384615384614,0.122,0.27068749999999997
26,4,7,0,5,32.87899999999998,16,151,15,13,37,70,39.28399999999997,35.928999999999974,0.061,0.488,20,19,1,3,182,146,1,3,5,0,21,5.25,5,L,0.21584615384615383,0.2460890410958904,0.061,0.16266666666666665
26,4,8,0,2,94.18400000000344,12,357,86,60,51,27,96.25800000000343,1.524999999999999,1.0369999999999995,2.2569999999999983,20,7,4,6,367,8,4,6,4,0,16,4,5,L,0.26228337874659396,0.190625,0.2592499999999999,0.37616666666666654
27,1,1,0,9,79.72700000000177,17,336,69,71,17,20,80.39800000000177,0.122,2.8669999999999978,0.9759999999999995,19,1,12,4,339,2,14,5,4,0,20,5,5,L,0.23716224188790558,0.061,0.20478571428571424,0.19519999999999998
27,1,2,0,6,26.22999999999998,18,125,1,6,5,45,32.26899999999998,1.2199999999999993,0.305,2.3789999999999982,20,4,1,9,143,4,1,12,6,0.5,41,5.75,5,L,0.22565734265734264,0.30499999999999994,0.305,0.19824999999999998
27,2,3,0,2,12.99299999999999,16,68,58,55,15,60,13.41999999999999,0.305,14.151999999999989,0.244,19,2,16,1,71,2,61,1,4,0.5,30,4.5,5,L,0.18901408450704224,0.1525,0.23199999999999998,0.244
27,2,4,0,6,14.456999999999988,12,63,3,11,10,9,14.944999999999988,0.5489999999999999,2.1349999999999985,7.8689999999999936,15,2,5,16,66,3,5,42,6,1,72,6,5,L,0.22643939393939394,0.183,0.42699999999999994,0.18735714285714283
27,3,5,0,7,15.371999999999987,8,74,20,15,18,19,17.933999999999987,7.197999999999994,1.4029999999999991,14.761999999999988,19,17,3,15,87,30,3,59,6,1,72,6,5,L,0.20613793103448275,0.2399333333333333,0.4676666666666664,0.25020338983050844
27,3,6,0,4,13.41999999999999,15,64,99,100,106,107,14.334999999999988,1.0369999999999995,2.1959999999999984,1.0979999999999994,19,5,9,5,68,5,9,6,2,1,24,2,5,L,0.21080882352941174,0.2074,0.24399999999999997,0.183
27,4,7,0,10,59.84099999999995,11,243,95,94,87,13,60.93899999999995,0.9149999999999996,0.7929999999999997,2.2569999999999983,15,7,2,6,247,7,2,6,3,0.5,24,3.75,5,L,0.24671659919028338,0.1307142857142857,0.39649999999999985,0.3761666666666666
27,4,8,0,4,69.05200000000053,15,265,100,99,97,30,69.66200000000053,2.0739999999999985,0.183,6.8319999999999945,17,7,1,13,267,12,1,34,2,0.5,17,2.75,5,L,0.26090636704119846,0.17283333333333334,0.183,0.20094117647058823
28,1,1,0,6,19.763999999999985,18,90,2,8,10,42,19.824999999999985,8.478999999999994,0.427,0.7929999999999997,19,15,2,4,91,39,2,4,6,0.5,41,5.75,5,L,0.21785714285714283,0.2174102564102564,0.2135,0.19824999999999998
28,1,2,0,10,42.51699999999997,15,189,94,32,85,95,42.63899999999997,1.9519999999999986,0.366,1.0979999999999994,16,6,2,3,190,8,2,3,3,0.5,23,3.5,5,L,0.22441578947368418,0.244,0.183,0.36599999999999994
28,2,3,0,7,26.59599999999998,16,120,16,29,22,28,26.65699999999998,13.907999999999989,3.720999999999997,16.10399999999999,17,15,9,14,121,71,13,60,6,0,22,5.5,5,L,0.22030578512396692,0.19588732394366196,0.2862307692307692,0.26839999999999997
28,2,4,0,4,31.475999999999974,18,136,4,2,54,105,58.86499999999995,8.783999999999994,0.488,0.061,20,17,2,1,234,31,2,1,2,0,18,4.5,5,L,0.25155982905982904,0.28335483870967737,0.244,0.061
28,3,5,0,2,15.066999999999988,20,75,51,17,13,78,15.127999999999988,15.615999999999987,36.47799999999997,1.1589999999999994,20,19,18,5,76,64,150,6,4,0,19,4.75,5,L,0.19905263157894737,0.24399999999999997,0.24318666666666663,0.19316666666666665
28,3,6,0,9,26.16899999999998,17,116,63,62,1,4,26.22999999999998,6.465999999999995,11.95599999999999,0.366,18,15,16,2,117,32,54,2,4,0,20,5,5,L,0.22418803418803418,0.20206249999999998,0.22140740740740739,0.183
28,4,7,0,5,26.59599999999998,16,128,39,38,6,83,27.754999999999978,0.061,4.7579999999999965,8.966999999999993,20,1,13,14,134,1,22,34,5,0,19,4.75,5,L,0.2071268656716418,0.061,0.21627272727272723,0.263735294117647
28,4,8,0,3,30.316999999999975,19,150,29,33,22,28,31.109999999999975,0.305,3.3549999999999973,1.0369999999999995,20,3,6,4,157,3,9,4,5,0.5,36,5.25,5,L,0.1981528662420382,0.10166666666666667,0.37277777777777765,0.25925
29,1,1,0,9,23.60699999999998,18,104,71,64,46,39,24.46099999999998,5.062999999999996,0.5489999999999999,10.308999999999992,20,14,2,15,108,23,2,45,4,0,18,4.5,5,L,0.22649074074074071,0.22013043478260869,0.27449999999999997,0.22908888888888887
29,1,2,0,10,31.292999999999974,17,131,96,88,95,25,31.414999999999974,0.427,0.122,6.282999999999995,18,2,2,11,132,2,2,20,3,0.5,23,3.5,5,L,0.23799242424242423,0.2135,0.061,0.31415
29,2,3,0,9,18.116999999999987,18,81,65,72,96,10,18.604999999999986,0.305,17.689999999999987,2.439999999999998,20,1,16,11,84,1,72,17,4,0,17,4.25,5,L,0.2214880952380952,0.305,0.2456944444444444,0.14352941176470588
29,2,4,0,7,21.227999999999984,16,103,15,16,59,24,27.205999999999978,1.9519999999999986,0.488,0.122,20,7,2,2,123,7,2,2,6,0.5,40,5.5,5,L,0.22118699186991866,0.27885714285714286,0.244,0.061
29,3,5,0,8,28.852999999999977,19,145,118,120,114,29,29.035999999999976,1.7689999999999988,4.818999999999996,5.916999999999995,20,7,10,15,146,8,19,39,2,0.5,17,2.75,5,L,0.1988767123287671,0.22112499999999996,0.25363157894736843,0.15171794871794872
29,3,6,0,1,43.12699999999997,18,185,74,84,54,11,43.30999999999997,3.781999999999997,7.807999999999994,0.244,19,14,16,1,186,22,36,1,3,0,16,4,5,L,0.23284946236559137,0.1719090909090909,0.21688888888888885,0.244
29,4,7,0,7,68.50300000000047,14,287,18,14,33,94,68.56400000000048,2.561999999999998,14.517999999999988,0.122,15,9,17,1,288,13,68,1,6,0,20,5,5,L,0.23806944444444442,0.19707692307692307,0.21349999999999997,0.122
29,4,8,0,9,17.079999999999988,20,80,63,61,47,68,19.641999999999985,8.417999999999994,4.391999999999997,1.524999999999999,20,19,11,4,90,39,21,4,4,0.5,29,4.25,5,L,0.21824444444444444,0.21584615384615383,0.20914285714285713,0.38124999999999987
30,1,1,0,7,25.07099999999998,11,110,20,13,21,52,27.327999999999978,2.439999999999998,0.122,4.879999999999996,20,10,1,13,119,10,1,23,6,0.5,40,5.5,6,L,0.2296470588235294,0.244,0.122,0.21217391304347824
30,1,2,0,8,27.693999999999978,15,102,114,116,109,82,28.120999999999977,0.9149999999999996,3.3549999999999973,3.537999999999997,19,6,11,7,106,6,16,12,2,0.5,15,2.25,6,L,0.26529245283018865,0.1525,0.20968749999999997,0.2948333333333333
30,2,3,0,6,21.715999999999983,18,113,1,2,5,29,23.97299999999998,1.1589999999999994,3.3549999999999973,1.463999999999999,20,8,10,4,127,10,11,6,6,0.5,41,5.75,6,L,0.18876377952755904,0.1159,0.305,0.244
30,2,4,0,7,21.227999999999984,17,105,17,22,23,91,23.60699999999998,0.305,12.99299999999999,0.5489999999999999,20,2,17,4,120,2,51,4,6,0.5,39,5.25,6,L,0.19672499999999998,0.1525,0.25476470588235295,0.13724999999999998
30,3,5,0,9,33.793999999999976,16,157,61,71,64,22,35.379999999999974,1.1589999999999994,0.122,3.9649999999999967,20,3,1,11,165,3,1,18,4,0.5,30,4.5,6,L,0.2144242424242424,0.3863333333333332,0.122,0.22027777777777774
30,3,6,0,8,27.388999999999978,14,141,11,111,119,110,34.708999999999975,0.061,1.3419999999999992,0.8539999999999996,20,1,6,5,170,1,6,5,2,0.5,18,3,6,L,0.2041705882352941,0.061,0.22366666666666665,0.1708
30,4,7,0,4,45.078999999999965,17,213,100,97,108,44,45.566999999999965,0.061,3.1109999999999975,4.7579999999999965,19,1,12,9,215,1,18,17,2,0.5,17,2.75,6,L,0.21193953488372091,0.061,0.1728333333333333,0.27988235294117647
30,4,8,0,3,79.60500000000175,15,361,34,31,27,55,80.33700000000175,1.646999999999999,0.427,0.7929999999999997,18,7,2,2,364,12,2,2,5,0.5,34,4.75,6,L,0.22070604395604393,0.13724999999999998,0.2135,0.39649999999999996
30,5,9,0,7,17.384999999999987,14,76,13,15,23,31,17.445999999999987,1.3419999999999992,1.0979999999999994,7.990999999999993,15,5,5,14,77,5,6,35,6,0.5,41,5.75,6,L,0.22657142857142856,0.26839999999999997,0.183,0.2283142857142857
30,5,10,0,1,28.486999999999977,15,127,79,80,74,2,28.730999999999977,1.0979999999999994,0.488,9.027999999999993,16,7,4,16,128,9,5,44,3,0.5,24,3.75,6,L,0.22446093749999999,0.122,0.09759999999999999,0.2051818181818182
31,1,1,0,3,20.922999999999984,13,80,27,30,31,35,22.630999999999982,0.305,0.061,1.0369999999999995,20,2,1,5,89,2,1,5,5,1,60,5,5,L,0.2542808988764045,0.1525,0.061,0.2074
31,1,2,0,10,22.691999999999982,14,92,89,94,92,23,24.70499999999998,0.061,0.488,1.0369999999999995,20,1,2,3,103,1,2,3,3,0.5,24,3.75,5,L,0.23985436893203882,0.061,0.244,0.3456666666666667
31,2,3,0,4,38.06399999999997,17,162,101,107,104,21,38.12499999999997,0.8539999999999996,0.488,3.9649999999999967,18,4,4,11,163,4,4,15,2,0.5,18,3,5,L,0.23389570552147237,0.2135,0.122,0.2643333333333333
31,2,4,0,2,51.42299999999996,17,227,51,52,50,93,52.21599999999996,4.208999999999997,0.366,3.1719999999999975,20,15,3,11,230,23,4,17,4,0.5,27,3.75,5,L,0.2270260869565217,0.183,0.0915,0.18658823529411764
31,3,5,0,9,24.39999999999998,18,116,72,61,65,46,24.64399999999998,1.9519999999999986,0.7929999999999997,7.319999999999994,20,8,3,13,118,9,3,31,4,0.5,29,4.25,5,L,0.20884745762711862,0.21688888888888888,0.2643333333333333,0.2361290322580645
31,3,6,0,8,39.03999999999997,17,162,2,109,73,30,74.72499999999994,0.183,1.1589999999999994,1.646999999999999,20,2,5,6,300,2,5,6,2,0,16,4,5,L,0.2490833333333333,0.0915,0.2318,0.27449999999999997
31,4,7,0,1,61.85399999999995,12,267,74,43,22,75,61.91499999999995,4.086999999999997,9.759999999999993,0.488,13,11,17,2,268,20,44,2,3,0,17,4.25,5,L,0.23102611940298504,0.20434999999999998,0.2218181818181818,0.244
31,4,8,0,6,8.600999999999994,15,46,4,5,9,25,8.661999999999994,6.587999999999995,3.3549999999999973,6.465999999999995,16,16,10,15,47,31,20,28,6,0.5,41,5.75,5,L,0.18429787234042552,0.21251612903225803,0.16774999999999998,0.23092857142857143
32,1,1,0,9,22.325999999999983,14,94,7,28,12,69,51.36199999999996,0.122,0.244,0.305,20,1,1,3,221,1,1,3,4,0,21,5.25,6,L,0.2324072398190045,0.122,0.244,0.10166666666666667
32,1,2,0,2,25.31499999999998,17,112,56,60,54,24,26.41299999999998,0.061,0.8539999999999996,3.2939999999999974,20,1,5,8,117,1,6,12,4,0.5,30,4.5,6,L,0.22575213675213673,0.061,0.14233333333333334,0.27449999999999997
32,2,3,0,6,18.909999999999986,18,94,12,6,7,8,19.092999999999986,4.818999999999996,0.061,5.611999999999996,20,9,1,12,97,15,1,20,6,1,72,6,6,L,0.19683505154639175,0.3212666666666666,0.061,0.28059999999999996
32,2,4,0,7,28.120999999999977,15,134,21,19,14,62,28.303999999999977,1.524999999999999,14.273999999999988,0.427,17,6,18,1,136,7,73,1,6,0.5,40,5.5,6,L,0.20811764705882352,0.21785714285714283,0.19553424657534244,0.427
32,3,5,0,6,39.40599999999997,19,163,1,95,48,12,39.46699999999997,7.685999999999994,0.6099999999999999,1.7689999999999988,20,15,2,6,164,33,2,9,6,0,20,5,6,L,0.2406524390243902,0.2329090909090909,0.305,0.19655555555555554
32,3,6,0,9,15.676999999999987,18,77,33,16,19,72,35.196999999999974,6.465999999999995,0.488,0.6099999999999999,20,12,4,3,158,16,4,3,4,0,21,5.25,6,L,0.2227658227848101,0.40412499999999985,0.122,0.20333333333333334
32,4,7,0,8,31.231999999999974,16,148,110,109,69,114,32.26899999999998,0.9149999999999996,7.685999999999994,0.061,19,4,14,1,151,6,29,1,2,0.5,16,2.5,6,L,0.21370198675496688,0.1525,0.2650344827586207,0.061
32,4,8,0,4,28.852999999999977,14,143,99,98,34,105,29.340999999999976,0.8539999999999996,1.0979999999999994,0.9759999999999995,17,3,4,7,146,3,4,9,2,0.5,17,2.75,6,L,0.20096575342465753,0.2846666666666666,0.27449999999999997,0.10844444444444444
32,5,9,0,7,61.06099999999995,15,269,16,41,76,22,61.12199999999995,3.0499999999999976,3.2939999999999974,0.9759999999999995,16,6,10,3,270,8,13,3,6,0,20,5,6,L,0.22637777777777776,0.38124999999999987,0.2533846153846154,0.3253333333333333
32,5,10,0,10,19.763999999999985,19,101,87,94,86,1,20.495999999999984,1.4029999999999991,2.2569999999999983,9.271999999999993,20,4,5,15,106,5,7,41,3,0.5,24,3.75,6,L,0.1933584905660377,0.28059999999999996,0.32242857142857134,0.2261463414634146
33,1,1,0,8,15.493999999999987,17,83,120,113,118,111,15.737999999999987,0.5489999999999999,0.488,2.805999999999998,20,4,2,10,86,5,2,13,2,1,24,2,6,L,0.183,0.1098,0.244,0.21584615384615383
33,1,2,0,4,29.157999999999976,19,136,104,100,17,107,29.889999999999976,0.7319999999999998,7.807999999999994,2.3789999999999982,20,5,15,11,139,5,31,12,2,0.5,18,3,6,L,0.21503597122302157,0.1464,0.25187096774193546,0.19824999999999998
33,2,3,0,9,25.80299999999998,17,114,67,15,70,78,26.47399999999998,6.282999999999995,3.598999999999997,7.685999999999994,20,15,8,13,117,26,16,32,4,0,17,4.25,6,L,0.22627350427350423,0.2416538461538461,0.22493749999999998,0.24018749999999997
33,2,4,0,6,19.580999999999985,15,98,2,11,7,26,21.288999999999984,1.7689999999999988,0.061,7.624999999999994,20,7,1,13,105,9,1,33,6,0.5,41,5.75,6,L,0.20275238095238093,0.19655555555555554,0.061,0.23106060606060602
33,3,5,0,2,31.170999999999975,18,141,54,55,50,53,31.475999999999974,2.2569999999999983,0.488,1.8299999999999987,20,7,4,7,144,7,4,9,4,1,48,4,6,L,0.21858333333333332,0.3224285714285714,0.122,0.20333333333333334
33,3,6,0,6,58.01099999999995,11,251,8,12,6,89,58.74299999999995,2.1349999999999985,2.439999999999998,10.979999999999992,15,8,8,16,256,11,13,50,6,0.5,39,5.25,6,L,0.22946484374999998,0.19409090909090906,0.18769230769230769,0.2196
33,4,7,0,8,75.6400000000013,13,309,115,110,118,113,76.4330000000013,0.122,1.3419999999999992,0.366,16,1,3,1,312,1,4,1,2,1,24,2,6,L,0.24497756410256408,0.122,0.3354999999999999,0.366
33,4,8,0,2,20.983999999999984,18,110,55,58,51,21,21.593999999999983,0.366,5.367999999999996,0.7929999999999997,20,3,15,4,114,3,26,5,4,0.5,30,4.5,6,L,0.18942105263157893,0.122,0.20646153846153845,0.1586
33,5,9,0,10,25.55899999999998,16,114,86,85,92,55,25.92499999999998,0.488,1.9519999999999986,1.7689999999999988,19,2,12,3,117,2,12,5,3,0.5,22,3.25,6,L,0.22158119658119657,0.244,0.16266666666666665,0.3537999999999999
33,5,10,0,3,29.218999999999976,12,129,3,30,5,26,73.99299999999994,0.183,0.427,2.8669999999999978,20,2,3,11,324,2,3,14,5,0,22,5.5,6,L,0.22837345679012344,0.0915,0.14233333333333334,0.20478571428571427
34,1,1,0,9,30.560999999999975,16,126,69,70,68,42,30.804999999999975,1.0979999999999994,0.244,4.940999999999996,18,3,3,14,128,3,3,26,4,0.5,29,4.25,6,L,0.24066406249999997,0.36599999999999994,0.08133333333333333,0.19003846153846154
34,1,2,0,3,19.824999999999985,18,82,30,36,59,10,21.715999999999983,1.3419999999999992,5.428999999999996,5.489999999999996,20,8,15,14,93,9,26,25,5,0,20,5,6,L,0.233505376344086,0.1491111111111111,0.2088076923076923,0.21959999999999996
34,2,3,0,10,22.691999999999982,16,112,93,87,91,89,23.60699999999998,1.2809999999999993,0.305,4.391999999999997,19,5,3,14,115,5,3,24,3,1,36,3,6,L,0.20527826086956522,0.2562,0.10166666666666667,0.183
34,2,4,0,4,36.66099999999997,17,149,103,97,30,108,36.78299999999997,0.183,1.1589999999999994,2.0739999999999985,18,2,2,5,150,2,2,8,2,0.5,17,2.75,6,L,0.24521999999999997,0.0915,0.5794999999999997,0.2592499999999999
34,3,5,0,5,14.578999999999988,18,78,46,39,1,52,14.639999999999988,1.4029999999999991,1.9519999999999986,2.1959999999999984,19,7,7,4,79,7,8,6,5,0,20,5,6,L,0.18531645569620253,0.20042857142857143,0.24399999999999997,0.36599999999999994
34,3,6,0,1,31.780999999999974,11,144,77,76,79,74,33.976999999999975,0.7319999999999998,0.122,3.537999999999997,20,3,1,15,153,3,1,21,3,1,36,3,6,L,0.22207189542483657,0.244,0.122,0.16847619047619047
34,4,7,0,8,22.142999999999983,9,98,119,112,111,110,22.813999999999982,0.061,0.488,1.2199999999999993,13,1,2,6,102,1,2,7,2,1,24,2,6,L,0.22366666666666665,0.061,0.244,0.1742857142857143
34,4,8,0,6,45.139999999999965,16,203,6,10,9,1,45.383999999999965,9.454999999999993,3.9649999999999967,1.0369999999999995,19,17,9,2,206,41,13,3,6,1,72,6,6,L,0.22031067961165046,0.23060975609756096,0.30499999999999994,0.34566666666666657
34,5,9,0,7,43.12699999999997,11,185,23,24,22,18,45.749999999999964,1.2809999999999993,2.3789999999999982,0.427,20,7,5,2,197,8,6,3,6,1,72,6,6,L,0.23223350253807104,0.160125,0.39649999999999996,0.14233333333333334
34,5,10,0,2,35.562999999999974,19,155,50,57,52,35,36.66099999999997,1.524999999999999,3.2939999999999974,1.8909999999999987,20,8,9,8,159,8,9,9,4,0.5,29,4.25,6,L,0.23057232704402514,0.190625,0.3659999999999999,0.2101111111111111
35,1,1,0,9,22.569999999999983,18,112,66,64,43,12,23.42399999999998,2.1959999999999984,9.942999999999993,1.3419999999999992,20,8,17,5,117,11,38,5,4,0,19,4.75,6,L,0.2002051282051282,0.19963636363636364,0.2616578947368421,0.26839999999999997
35,1,2,0,1,11.345999999999991,15,58,82,77,78,80,11.406999999999991,0.6709999999999998,1.0369999999999995,4.452999999999997,16,3,7,12,59,3,8,20,3,1,36,3,6,L,0.19333898305084746,0.22366666666666665,0.129625,0.22265
35,2,3,0,7,20.007999999999985,17,90,15,22,21,23,20.251999999999985,0.305,12.50499999999999,1.2809999999999993,19,2,16,4,93,2,44,4,6,1,72,6,6,L,0.21776344086021504,0.1525,0.2842045454545454,0.3202499999999999
35,2,4,0,6,20.800999999999984,11,83,11,4,3,12,23.48499999999998,1.8299999999999987,10.674999999999992,2.500999999999998,19,6,17,7,91,8,53,10,6,1,72,6,6,L,0.25807692307692304,0.22875,0.20141509433962262,0.25009999999999993
35,3,5,0,4,40.62599999999997,11,194,97,101,106,66,43.00499999999997,0.122,1.4029999999999991,4.513999999999997,20,1,4,11,208,1,4,18,2,0.5,16,2.5,6,L,0.20675480769230767,0.122,0.3507499999999999,0.25077777777777777
35,3,6,0,6,15.615999999999987,14,72,3,9,10,57,16.04299999999999,1.1589999999999994,6.282999999999995,1.8909999999999987,17,6,15,5,75,6,29,9,6,0.5,40,5.5,6,L,0.21390666666666666,0.19316666666666665,0.2166551724137931,0.2101111111111111
35,4,7,0,1,39.71099999999997,14,167,79,81,73,84,39.77199999999997,0.061,1.9519999999999986,0.8539999999999996,15,1,9,3,168,1,10,3,3,1,36,3,6,L,0.23673809523809522,0.061,0.19519999999999998,0.2846666666666666
35,4,8,0,7,32.939999999999976,10,148,20,17,22,23,33.793999999999976,9.454999999999993,3.781999999999997,1.0369999999999995,14,17,12,6,152,42,15,6,6,1,72,6,6,L,0.22232894736842104,0.2251190476190476,0.2521333333333333,0.17283333333333334
35,5,9,0,7,37.63699999999997,17,148,14,19,17,36,37.69799999999997,1.4029999999999991,1.7689999999999988,9.393999999999993,18,3,6,14,149,5,7,41,6,0.5,41,5.75,6,L,0.25300671140939596,0.28059999999999996,0.25271428571428567,0.22912195121951218
35,5,10,0,2,55.814999999999955,14,227,37,5,105,100,65.94099999999995,150.24300000000991,0.122,0.122,20,19,1,2,264,591,1,2,4,0,15,3.75,6,L,0.2497765151515151,0.2542182741116751,0.122,0.061
36,1,1,0,8,30.804999999999975,19,154,115,117,114,119,33.610999999999976,1.0369999999999995,0.305,9.942999999999993,20,5,2,16,172,5,2,49,2,1,24,2,6,L,0.1954127906976744,0.20739999999999997,0.1525,0.20291836734693877
36,1,2,0,4,16.896999999999988,19,68,97,99,36,101,17.079999999999988,1.3419999999999992,2.1349999999999985,0.427,20,5,6,2,70,5,6,2,2,0.5,17,2.75,6,L,0.24399999999999997,0.2683999999999999,0.3558333333333332,0.2135
36,2,3,0,8,25.13199999999998,14,125,111,119,115,116,26.22999999999998,3.1719999999999975,0.122,4.086999999999997,19,9,2,12,131,10,2,18,2,1,24,2,6,L,0.20022900763358778,0.3171999999999999,0.061,0.22705555555555554
36,2,4,0,6,45.627999999999965,10,188,6,3,12,4,46.359999999999964,7.258999999999994,2.2569999999999983,1.0369999999999995,14,14,10,4,193,31,13,4,6,1,72,6,6,L,0.24020725388601033,0.2341612903225806,0.1736153846153846,0.25925
36,3,5,0,7,16.22599999999999,17,74,14,19,78,37,16.28699999999999,1.585999999999999,2.805999999999998,2.744999999999998,18,5,8,6,75,5,11,8,6,0,20,5,6,L,0.21716,0.31719999999999987,0.25509090909090903,0.3431249999999999
36,3,6,0,3,19.885999999999985,19,97,34,29,36,93,20.861999999999984,0.305,3.2329999999999974,7.563999999999994,20,3,10,13,101,3,16,28,5,0.5,33,4.5,6,L,0.20655445544554454,0.10166666666666667,0.20206249999999998,0.27014285714285713
36,4,7,0,3,13.663999999999989,16,61,33,25,14,31,14.517999999999988,1.8909999999999987,0.9759999999999995,1.463999999999999,20,7,5,7,67,8,6,8,5,0.5,36,5.25,6,L,0.21668656716417908,0.23637499999999997,0.16266666666666665,0.183
36,4,8,0,8,66.49000000000024,13,291,119,115,40,2,66.55100000000024,0.122,4.330999999999997,7.990999999999993,14,1,13,15,292,1,24,35,2,0,15,3.75,6,L,0.2279143835616438,0.122,0.18045833333333333,0.2283142857142857
36,5,9,0,2,39.16199999999997,15,162,53,50,55,105,39.64999999999997,0.183,3.476999999999997,2.1959999999999984,18,1,11,7,165,1,15,10,4,0.5,26,3.5,6,L,0.24030303030303027,0.183,0.23179999999999998,0.2196
36,5,10,0,5,16.652999999999988,19,76,43,45,40,41,18.665999999999986,0.183,1.8299999999999987,3.1719999999999975,20,1,8,9,86,1,10,10,5,1,60,5,6,L,0.21704651162790697,0.183,0.183,0.3171999999999999
37,1,1,0,4,16.774999999999988,19,79,97,98,101,107,17.018999999999988,0.244,0.6709999999999998,1.1589999999999994,20,2,2,4,81,2,2,5,2,1,24,2,6,L,0.21011111111111108,0.122,0.3355,0.2318
37,1,2,0,7,41.60199999999997,18,192,21,24,46,90,41.66299999999997,0.9149999999999996,2.805999999999998,3.476999999999997,19,7,10,8,193,7,13,10,6,0,20,5,6,L,0.21587046632124351,0.1307142857142857,0.21584615384615383,0.3476999999999999
37,2,3,0,10,20.312999999999985,20,87,91,92,95,52,23.72899999999998,0.244,4.513999999999997,9.698999999999993,20,2,11,15,107,2,15,37,3,0.5,22,3.25,6,L,0.2217663551401869,0.122,0.30093333333333333,0.2621351351351351
37,2,4,0,1,20.007999999999985,20,100,83,84,3,73,25.49799999999998,11.406999999999991,2.744999999999998,0.122,20,18,14,1,120,55,18,1,3,0.5,24,3.75,6,L,0.2124833333333333,0.20739999999999997,0.1525,0.122
37,3,5,0,4,41.96799999999997,9,180,100,97,75,27,43.24899999999997,0.488,6.038999999999995,3.537999999999997,13,4,12,12,186,4,23,15,2,0,12,3,6,L,0.23252150537634406,0.122,0.26256521739130434,0.23586666666666664
37,3,6,0,6,23.54599999999998,16,104,5,9,85,63,24.88799999999998,0.8539999999999996,10.918999999999992,6.648999999999995,20,3,14,14,113,4,41,34,6,0,19,4.75,6,L,0.22024778761061944,0.2135,0.26631707317073167,0.19555882352941176
37,4,7,0,2,14.151999999999989,20,74,51,50,53,17,14.700999999999988,1.1589999999999994,4.7579999999999965,4.208999999999997,20,5,11,11,79,5,18,20,4,0.5,30,4.5,6,L,0.1860886075949367,0.2318,0.2643333333333333,0.21045
37,4,8,0,9,22.020999999999983,17,94,61,69,62,5,23.362999999999982,0.427,2.8669999999999978,1.2809999999999993,20,1,7,6,101,1,8,7,4,0.5,30,4.5,6,L,0.2313168316831683,0.427,0.35837499999999994,0.183
37,5,9,0,4,33.000999999999976,12,131,98,105,68,61,33.061999999999976,0.244,2.0129999999999986,0.7319999999999998,13,2,7,2,132,2,10,2,2,0,12,3,6,L,0.25046969696969695,0.122,0.2013,0.36599999999999994
37,5,10,0,5,16.835999999999988,19,84,51,87,58,22,36.17299999999997,18.421999999999986,14.822999999999988,6.282999999999995,20,18,17,16,147,77,63,34,5,0,17,4.25,6,L,0.24607482993197274,0.23924675324675324,0.23528571428571426,0.1847941176470588
38,1,1,0,9,70.39400000000069,15,301,10,67,66,29,71.0650000000007,1.2809999999999993,1.2199999999999993,0.9149999999999996,16,4,3,3,302,4,3,3,4,0,19,4.75,5,L,0.23531456953642382,0.32024999999999987,0.4066666666666666,0.3049999999999999
38,1,2,0,2,36.41699999999997,15,146,50,58,15,54,37.08799999999997,0.244,6.648999999999995,0.183,20,1,14,1,152,1,28,1,4,0.5,30,4.5,5,L,0.24399999999999997,0.244,0.23746428571428568,0.183
38,2,3,0,6,19.946999999999985,19,101,1,3,12,10,20.983999999999984,4.6969999999999965,1.7079999999999989,0.9759999999999995,20,11,7,4,103,12,9,5,6,1,72,6,5,L,0.20372815533980582,0.3914166666666666,0.18977777777777777,0.19519999999999996
38,2,4,0,3,38.06399999999997,17,197,34,35,67,15,44.163999999999966,0.061,2.561999999999998,2.500999999999998,20,1,8,8,225,1,11,9,5,0,20,5,5,L,0.19628444444444443,0.061,0.2329090909090909,0.2778888888888889
38,3,5,0,8,69.41800000000057,13,294,116,110,71,43,71.18700000000058,1.9519999999999986,0.305,1.524999999999999,20,7,2,6,303,11,2,7,2,0,13,3.25,5,L,0.23494059405940593,0.17745454545454545,0.1525,0.21785714285714283
38,3,6,0,6,9.515999999999993,8,51,1,5,11,12,11.589999999999991,2.683999999999998,0.305,1.7079999999999989,19,7,3,8,66,10,3,13,6,1,72,6,5,L,0.1756060606060606,0.26839999999999997,0.10166666666666667,0.13138461538461538
38,4,7,0,6,34.037999999999975,11,150,3,72,12,7,34.098999999999975,1.524999999999999,1.0979999999999994,5.184999999999996,12,6,3,9,151,6,5,19,6,0.5,40,5.5,5,L,0.2258211920529801,0.2541666666666666,0.2196,0.27289473684210525
38,4,8,0,4,16.591999999999988,20,89,98,38,57,50,16.652999999999988,11.467999999999991,10.369999999999992,14.212999999999989,20,16,17,15,90,46,40,69,2,0,15,3.75,5,L,0.18503333333333333,0.24930434782608693,0.25925,0.2059855072463768
39,1,1,0,8,10.674999999999992,16,61,115,113,109,111,11.162999999999991,0.427,0.305,0.5489999999999999,19,3,2,2,64,3,2,2,2,1,24,2,6,L,0.174421875,0.14233333333333334,0.1525,0.27449999999999997
39,1,2,0,10,54.594999999999956,19,229,90,86,41,45,55.753999999999955,0.244,3.598999999999997,1.7689999999999988,20,3,14,7,235,3,18,9,3,0,16,4,6,L,0.23725106382978722,0.08133333333333333,0.19994444444444442,0.19655555555555554
39,2,3,0,9,22.569999999999983,11,107,67,61,65,64,23.240999999999982,0.8539999999999996,2.0129999999999986,0.7929999999999997,13,3,7,4,109,3,8,4,4,1,48,4,6,L,0.2132201834862385,0.2846666666666667,0.251625,0.19824999999999998
39,2,4,0,1,13.29799999999999,19,69,52,73,74,82,38.12499999999997,0.061,0.305,0.9759999999999995,20,1,4,6,172,1,4,6,3,0.5,22,3.25,6,L,0.22165697674418602,0.061,0.07625,0.16266666666666665
39,3,5,0,1,42.88299999999997,17,159,83,82,19,21,43.24899999999997,2.3789999999999982,2.0129999999999986,11.71199999999999,19,8,8,14,161,9,11,51,3,0,18,4.5,6,L,0.26862732919254656,0.2643333333333333,0.18299999999999997,0.2296470588235294
39,3,6,0,5,15.371999999999987,15,79,2,71,47,40,49.77599999999996,0.061,0.6709999999999998,1.0369999999999995,20,1,6,5,222,1,6,5,5,0,20,5,6,L,0.2242162162162162,0.061,0.11183333333333333,0.2074
39,4,7,0,4,24.70499999999998,10,96,98,106,2,37,24.88799999999998,0.244,7.990999999999993,10.491999999999992,11,3,15,15,97,3,40,42,2,0,15,3.75,6,L,0.25657731958762886,0.08133333333333333,0.19977499999999998,0.2498095238095238
39,4,8,0,7,26.04699999999998,12,143,13,19,18,17,26.10799999999998,0.7929999999999997,3.1109999999999975,13.48099999999999,13,5,5,16,144,5,9,60,6,1,72,6,6,L,0.18130555555555555,0.1586,0.3456666666666666,0.22468333333333332
39,5,9,0,10,32.02499999999998,16,146,92,95,88,89,33.610999999999976,1.524999999999999,0.9149999999999996,0.122,20,5,2,2,153,6,2,2,3,1,36,3,6,L,0.2196797385620915,0.2541666666666666,0.4574999999999999,0.061
39,5,10,0,9,52.88699999999996,13,235,78,79,118,110,64.53799999999995,9.820999999999993,14.334999999999988,0.305,20,15,17,1,283,34,58,1,4,0,10,2.5,6,L,0.2280494699646643,0.28885294117647053,0.2471551724137931,0.305
40,1,1,0,5,32.26899999999998,16,133,47,40,39,16,32.32999999999998,0.183,0.7319999999999998,4.208999999999997,17,2,4,14,134,2,4,24,5,0.5,36,5.25,5,L,0.2412686567164179,0.0915,0.183,0.17537499999999998
40,1,2,0,2,30.987999999999975,17,148,50,58,53,82,31.963999999999974,0.122,2.0129999999999986,9.271999999999993,20,1,9,13,153,1,9,29,4,0.5,27,3.75,5,L,0.20891503267973854,0.122,0.22366666666666665,0.31972413793103444
40,2,3,0,3,25.68099999999998,18,129,31,66,64,2,28.425999999999977,13.785999999999989,3.659999999999997,1.8909999999999987,20,17,7,6,140,59,7,8,5,0,19,4.75,5,L,0.20304285714285714,0.2336610169491525,0.5228571428571427,0.23637499999999995
40,2,4,0,5,17.567999999999987,17,93,15,45,16,18,39.03999999999997,3.1109999999999975,7.746999999999994,7.380999999999994,20,12,16,14,191,13,35,27,5,0.5,41,5.75,5,L,0.20439790575916228,0.23930769230769228,0.22134285714285712,0.2733703703703703
40,3,5,0,8,21.532999999999983,18,91,115,113,1,118,21.837999999999983,6.648999999999995,2.0739999999999985,2.3179999999999983,19,12,7,8,92,28,10,8,2,0.5,18,3,5,L,0.23736956521739128,0.2374642857142857,0.2074,0.28974999999999995
40,3,6,0,5,37.81999999999997,18,181,69,103,97,94,40.38199999999997,15.432999999999987,3.4159999999999973,2.561999999999998,20,19,11,10,190,81,13,12,5,0,11,2.75,5,L,0.21253684210526314,0.19053086419753085,0.26276923076923075,0.2135
40,4,7,0,1,55.326999999999956,17,227,77,84,120,80,55.936999999999955,2.8669999999999978,1.1589999999999994,1.8909999999999987,20,14,3,5,231,17,4,7,3,0.5,20,2.75,5,L,0.24215151515151512,0.1686470588235294,0.28975,0.27014285714285713
40,4,8,0,10,25.98599999999998,17,114,95,86,98,14,29.279999999999976,0.488,1.2199999999999993,6.343999999999995,20,3,5,14,123,3,5,23,3,0,14,3.5,5,L,0.23804878048780484,0.16266666666666665,0.244,0.2758260869565217
41,1,1,0,9,20.129999999999985,18,105,71,61,65,48,21.227999999999984,0.6099999999999999,0.7929999999999997,1.524999999999999,20,2,4,3,108,2,4,5,4,0.5,29,4.25,6,L,0.19655555555555554,0.30499999999999994,0.19824999999999998,0.305
41,1,2,0,3,50.38599999999996,12,223,24,27,32,80,51.60599999999996,0.7319999999999998,1.0369999999999995,3.598999999999997,16,5,3,11,229,5,3,19,5,0,19,4.75,6,L,0.22535371179039299,0.1464,0.3456666666666667,0.18942105263157893
41,2,3,0,5,24.39999999999998,19,117,39,40,10,38,25.49799999999998,3.537999999999997,2.561999999999998,0.183,20,13,5,1,122,20,8,1,5,0.5,36,5.25,6,L,0.209,0.1769,0.32025,0.183
41,2,4,0,8,30.072999999999976,18,148,116,112,118,111,30.743999999999975,0.244,1.2199999999999993,1.7079999999999989,20,1,4,4,150,1,4,4,2,1,24,2,6,L,0.20495999999999998,0.244,0.30499999999999994,0.42699999999999994
41,3,5,0,4,50.08099999999996,18,238,97,100,29,10,50.14199999999996,0.9759999999999995,4.635999999999997,6.038999999999995,19,4,14,13,239,4,27,21,2,0,15,3.75,6,L,0.20979916317991631,0.244,0.1717037037037037,0.28757142857142853
41,3,6,0,10,37.27099999999997,14,155,93,96,91,13,38.67399999999997,2.9279999999999977,4.391999999999997,4.940999999999996,19,13,12,14,161,18,19,23,3,0.5,24,3.75,6,L,0.24021118012422357,0.16266666666666665,0.2311578947368421,0.21482608695652172
41,4,7,0,4,23.78999999999998,20,139,107,13,92,15,23.85099999999998,27.02299999999998,0.061,1.1589999999999994,20,19,1,5,140,99,1,5,2,0,17,4.25,6,L,0.17036428571428572,0.2729595959595959,0.061,0.23179999999999998
41,4,8,0,6,16.591999999999988,18,89,12,5,7,9,16.652999999999988,3.598999999999997,0.061,2.3789999999999982,19,11,1,8,90,17,1,8,6,1,72,6,6,L,0.18503333333333333,0.21170588235294116,0.061,0.29737499999999994
41,5,9,0,3,12.32199999999999,15,55,26,32,29,17,13.11499999999999,2.500999999999998,0.305,0.488,20,9,2,2,61,10,2,2,5,0.5,36,5.25,6,L,0.21499999999999997,0.2501,0.1525,0.244
41,5,10,0,9,23.42399999999998,17,115,71,69,68,65,23.78999999999998,0.5489999999999999,0.9759999999999995,13.11499999999999,19,3,5,16,117,4,6,68,4,1,48,4,6,L,0.2033333333333333,0.13724999999999998,0.16266666666666665,0.1928676470588235
42,1,1,0,10,25.92499999999998,17,122,94,86,63,16,27.693999999999978,2.1349999999999985,9.454999999999993,2.3179999999999983,20,6,16,7,132,7,52,8,3,0,16,4,5,L,0.2098030303030303,0.30499999999999994,0.18182692307692308,0.28975
42,1,2,0,5,18.116999999999987,17,94,48,8,73,39,20.190999999999985,16.40899999999999,0.5489999999999999,0.6099999999999999,20,18,2,3,99,69,2,3,5,0,19,4.75,5,L,0.20394949494949494,0.23781159420289852,0.27449999999999997,0.20333333333333334
42,2,3,0,2,45.383999999999965,19,192,52,54,51,13,45.810999999999964,0.305,5.306999999999996,3.659999999999997,20,2,12,13,195,3,26,19,4,0.5,30,4.5,5,L,0.23492820512820511,0.10166666666666667,0.2041153846153846,0.1926315789473684
42,2,4,0,8,34.342999999999975,19,143,118,109,110,115,34.403999999999975,3.720999999999997,0.061,1.3419999999999992,20,13,1,5,144,15,1,7,2,1,24,2,5,L,0.23891666666666664,0.24806666666666663,0.061,0.1917142857142857
42,3,5,0,10,105.1030000000047,12,444,94,64,38,21,105.7740000000047,0.488,2.0739999999999985,0.305,17,2,6,2,449,2,11,2,3,0,18,4.5,5,L,0.23557683741648106,0.244,0.18854545454545454,0.1525
42,3,6,0,3,16.835999999999988,18,75,30,27,34,32,17.079999999999988,0.061,1.8909999999999987,1.7689999999999988,20,1,6,6,77,1,9,9,5,1,60,5,5,L,0.2218181818181818,0.061,0.21011111111111108,0.19655555555555554
42,4,7,0,6,74.29800000000114,12,270,11,77,33,26,74.35900000000115,3.4159999999999973,5.367999999999996,3.4159999999999973,13,11,11,5,271,18,21,11,6,0,19,4.75,5,L,0.2743874538745387,0.18977777777777777,0.2556190476190476,0.31054545454545446
42,4,8,0,4,15.310999999999988,20,76,103,105,98,100,17.445999999999987,0.122,0.061,1.0369999999999995,20,2,1,7,81,2,1,11,2,1,24,2,5,L,0.2153827160493827,0.061,0.061,0.09427272727272727
43,1,1,0,8,20.495999999999984,18,97,111,118,119,114,21.654999999999983,0.488,0.366,1.0369999999999995,20,3,3,5,103,4,3,6,2,1,24,2,5,L,0.21024271844660194,0.122,0.122,0.17283333333333334
43,1,2,0,1,26.41299999999998,18,121,78,16,13,14,26.90099999999998,9.088999999999993,0.427,6.404999999999995,20,16,1,14,123,45,1,30,3,0.5,39,5.25,5,L,0.2187073170731707,0.20197777777777776,0.427,0.2135
43,2,3,0,9,71.85800000000086,13,289,68,41,23,70,72.59000000000086,4.147999999999997,2.805999999999998,4.025999999999997,17,11,9,12,293,20,10,22,4,0,19,4.75,5,L,0.24774744027303752,0.2074,0.28059999999999996,0.183
43,2,4,0,6,28.120999999999977,13,133,1,5,8,2,28.425999999999977,1.8299999999999987,2.2569999999999983,6.465999999999995,16,6,8,16,136,7,10,33,6,1,72,6,5,L,0.20901470588235294,0.2614285714285714,0.22569999999999998,0.1959393939393939
43,3,5,0,5,26.65699999999998,15,112,47,43,37,75,26.96199999999998,1.0979999999999994,0.061,8.295999999999994,17,3,1,13,114,3,1,28,5,0.5,33,4.5,5,L,0.23650877192982456,0.36599999999999994,0.061,0.29628571428571426
43,3,6,0,2,32.08599999999998,16,168,60,7,90,34,47.03099999999996,9.942999999999993,1.1589999999999994,0.305,20,17,5,1,228,45,5,1,4,0,18,4.5,5,L,0.20627631578947367,0.22095555555555552,0.2318,0.305
43,4,7,0,10,25.19299999999998,17,117,13,57,22,106,114.0090000000028,0.6709999999999998,0.8539999999999996,46.603999999999964,20,2,6,16,478,2,6,186,3,0,18,4.5,5,L,0.2385125523012552,0.3355,0.14233333333333334,0.2505591397849462
43,4,8,0,8,19.275999999999986,18,93,120,110,118,31,19.702999999999985,2.0129999999999986,0.061,7.624999999999994,20,8,1,13,96,9,1,44,2,0.5,17,2.75,5,L,0.20523958333333334,0.22366666666666665,0.061,0.17329545454545453
44,1,1,0,3,40.44299999999997,19,178,30,25,27,33,42.45599999999997,0.427,0.6099999999999999,5.123999999999996,20,2,4,10,192,2,5,18,5,1,60,5,6,L,0.221125,0.2135,0.122,0.2846666666666666
44,1,2,0,6,21.044999999999984,17,94,3,11,10,89,25.68099999999998,3.537999999999997,1.1589999999999994,2.561999999999998,20,11,6,9,112,15,6,11,6,0.5,39,5.25,6,L,0.22929464285714285,0.23586666666666664,0.19316666666666665,0.2329090909090909
44,2,3,0,5,64.72100000000003,14,284,41,62,47,65,66.00200000000004,0.366,1.7689999999999988,1.8909999999999987,20,2,5,8,293,2,6,10,5,0,18,4.5,6,L,0.22526279863481227,0.183,0.29483333333333334,0.1891
44,2,4,0,3,28.852999999999977,16,128,35,34,57,107,29.401999999999976,0.183,10.369999999999992,4.086999999999997,18,2,16,11,130,2,40,16,5,0,16,4,6,L,0.22616923076923076,0.0915,0.25925,0.2554375
44,3,5,0,7,25.00999999999998,18,109,16,24,48,70,25.07099999999998,1.9519999999999986,2.8669999999999978,4.7579999999999965,19,7,10,10,110,8,17,18,6,0,21,5.25,6,L,0.2279181818181818,0.24399999999999997,0.1686470588235294,0.2643333333333333
44,3,6,0,4,35.806999999999974,20,158,100,99,106,51,35.989999999999974,5.184999999999996,0.7319999999999998,0.7319999999999998,20,12,3,7,159,23,3,7,2,0.5,16,2.5,6,L,0.2263522012578616,0.22543478260869562,0.24399999999999997,0.10457142857142857
44,4,7,0,4,25.80299999999998,14,114,98,105,107,19,27.205999999999978,1.2199999999999993,0.305,4.208999999999997,20,6,2,11,122,6,3,23,2,0.5,18,3,6,L,0.22299999999999998,0.2033333333333333,0.10166666666666667,0.183
44,4,8,0,9,28.547999999999977,14,137,69,66,70,2,28.669999999999977,1.2199999999999993,4.330999999999997,3.2329999999999974,15,3,13,8,138,4,23,12,4,0.5,30,4.5,6,L,0.2077536231884058,0.305,0.18830434782608696,0.2694166666666666
44,5,9,0,7,22.874999999999982,14,102,15,72,65,68,22.935999999999982,4.025999999999997,9.271999999999993,3.3549999999999973,15,10,15,11,103,18,36,14,6,0.5,30,4.5,6,L,0.22267961165048542,0.22366666666666662,0.25755555555555554,0.23964285714285713
44,5,10,0,2,37.63699999999997,17,145,1,54,103,41,51.17899999999996,0.183,0.6099999999999999,0.7929999999999997,20,2,3,2,212,2,3,2,4,0,17,4.25,6,L,0.24141037735849055,0.0915,0.20333333333333334,0.39649999999999985
45,1,1,0,6,31.719999999999974,20,174,12,77,5,30,32.51299999999998,3.1719999999999975,1.7689999999999988,2.0739999999999985,20,9,6,7,181,9,8,10,6,0,20,5,5,L,0.17962983425414364,0.3524444444444443,0.221125,0.2074
45,1,2,0,7,57.82799999999995,16,238,15,95,47,85,59.65799999999995,8.539999999999994,1.524999999999999,10.186999999999992,20,14,7,15,243,35,7,41,6,0,17,4.25,5,L,0.24550617283950615,0.244,0.21785714285714283,0.2484634146341463
45,2,3,0,4,17.872999999999987,18,95,14,108,22,75,30.43899999999998,0.427,0.061,0.122,20,3,1,1,140,3,1,1,2,0,17,4.25,5,L,0.21742142857142854,0.14233333333333334,0.061,0.122
45,2,4,0,10,19.153999999999986,20,98,85,94,88,63,19.275999999999986,1.0369999999999995,0.5489999999999999,9.027999999999993,20,2,2,15,99,3,2,37,3,0.5,22,3.25,5,L,0.1947070707070707,0.3456666666666666,0.27449999999999997,0.244
45,3,5,0,2,26.65699999999998,20,123,59,98,12,36,29.828999999999976,3.2329999999999974,4.940999999999996,0.8539999999999996,20,11,14,4,133,13,27,4,4,0,17,4.25,5,L,0.22427819548872177,0.24869230769230768,0.183,0.21349999999999997
45,3,6,0,8,18.116999999999987,18,85,116,109,42,22,18.726999999999986,0.061,3.537999999999997,3.842999999999997,20,1,7,9,87,1,10,17,2,0,15,3.75,5,L,0.2152528735632184,0.061,0.35379999999999995,0.22605882352941173
45,4,7,0,1,37.20999999999997,17,144,106,63,17,82,44.468999999999966,16.16499999999999,0.244,0.8539999999999996,20,18,2,7,175,69,2,7,3,0,15,3.75,5,L,0.2541085714285714,0.23427536231884055,0.122,0.122
45,4,8,0,3,17.445999999999987,17,78,1,9,88,111,58.74299999999995,0.183,0.122,0.427,20,1,1,1,239,1,1,1,5,0,17,4.25,5,L,0.24578661087866108,0.183,0.122,0.427
46,1,1,0,6,30.621999999999975,19,149,9,51,11,54,30.682999999999975,3.537999999999997,0.122,11.162999999999991,20,7,1,14,150,10,1,50,6,0,20,5,6,L,0.2045533333333333,0.3537999999999999,0.122,0.22326
46,1,2,0,5,33.427999999999976,18,154,14,15,95,43,44.224999999999966,2.439999999999998,0.488,1.585999999999999,20,5,4,3,206,6,4,3,5,0,20,5,6,L,0.21468446601941746,0.4066666666666666,0.122,0.5286666666666665
46,2,3,0,3,14.761999999999988,20,81,29,28,90,49,14.822999999999988,0.6709999999999998,7.9299999999999935,2.9279999999999977,20,3,14,10,82,4,40,19,5,0,17,4.25,6,L,0.18076829268292682,0.16775,0.19824999999999998,0.15410526315789475
46,2,4,0,5,35.135999999999974,20,149,47,48,65,23,35.928999999999974,0.7319999999999998,4.818999999999996,0.366,20,3,12,2,152,3,20,2,5,0,20,5,6,L,0.23637499999999997,0.244,0.24094999999999997,0.183
46,3,5,0,4,27.998999999999977,20,121,106,32,68,99,31.231999999999974,2.561999999999998,0.6709999999999998,0.427,20,13,2,3,129,16,2,3,2,0,13,3.25,6,L,0.2421085271317829,0.160125,0.33549999999999996,0.14233333333333334
46,3,6,0,8,9.942999999999993,19,48,120,9,59,110,20.312999999999985,13.602999999999989,0.061,0.061,20,18,1,1,86,62,1,1,2,0,14,3.5,6,L,0.23619767441860465,0.21940322580645158,0.061,0.061
46,4,7,0,1,20.617999999999984,19,101,76,80,83,77,20.800999999999984,0.244,0.6099999999999999,0.9149999999999996,20,2,4,5,103,2,4,5,3,1,36,3,6,L,0.2019514563106796,0.122,0.1525,0.183
46,4,8,0,5,11.528999999999991,19,57,44,47,39,51,11.589999999999991,1.0979999999999994,2.0129999999999986,3.1109999999999975,20,4,7,9,58,4,9,18,5,0.5,34,4.75,6,L,0.19982758620689653,0.27449999999999997,0.22366666666666665,0.1728333333333333
46,5,9,0,7,22.020999999999983,17,106,16,20,64,109,22.081999999999983,3.3549999999999973,3.2329999999999974,4.025999999999997,18,12,8,9,107,16,10,15,6,0,18,4.5,6,L,0.20637383177570093,0.2096875,0.3233,0.26839999999999997
46,5,10,0,4,46.78699999999996,18,221,97,53,101,105,48.55599999999996,2.0129999999999986,0.244,0.244,20,7,3,1,228,8,3,1,2,0.5,16,2.5,6,L,0.21296491228070175,0.251625,0.08133333333333333,0.244
47,1,1,0,9,31.658999999999974,16,147,48,65,70,71,33.061999999999976,0.6099999999999999,0.7319999999999998,2.2569999999999983,17,5,5,6,148,5,5,9,4,0.5,29,4.25,5,L,0.22339189189189188,0.122,0.1464,0.25077777777777777
47,1,2,0,7,51.42299999999996,17,228,13,21,20,54,51.48399999999996,0.6709999999999998,3.3549999999999973,6.587999999999995,18,4,7,11,229,4,14,19,6,0.5,40,5.5,5,L,0.22482096069868993,0.16775,0.23964285714285713,0.34673684210526307
47,2,3,0,9,22.203999999999983,18,102,63,69,67,64,24.39999999999998,0.244,0.244,4.574999999999997,20,1,3,13,117,1,3,23,4,1,48,4,5,L,0.20854700854700853,0.244,0.08133333333333333,0.19891304347826086
47,2,4,0,7,31.719999999999974,16,147,16,17,24,27,31.963999999999974,1.9519999999999986,1.8299999999999987,6.221999999999995,18,7,4,15,149,8,5,34,6,0.5,41,5.75,5,L,0.2145234899328859,0.244,0.36599999999999994,0.183
47,3,5,0,10,61.06099999999995,11,252,95,4,1,91,61.79299999999995,1.1589999999999994,23.72899999999998,0.9149999999999996,17,6,18,4,258,6,117,4,3,0,18,4.5,5,L,0.23950775193798446,0.19316666666666665,0.20281196581196578,0.22875
47,3,6,0,3,28.364999999999977,17,124,36,35,22,32,30.438999999999975,1.7689999999999988,1.646999999999999,0.8539999999999996,20,8,2,4,135,8,2,4,5,0.5,36,5.25,5,L,0.22547407407407405,0.22112499999999996,0.8234999999999997,0.2135
47,4,7,0,4,67.8930000000004,12,291,97,17,101,98,68.0150000000004,5.001999999999996,1.3419999999999992,0.061,14,14,6,1,293,27,8,1,2,0.5,18,3,5,L,0.23213310580204777,0.18525925925925926,0.16775,0.061
47,4,8,0,3,19.641999999999985,20,107,32,10,28,26,21.959999999999983,13.724999999999989,1.0369999999999995,1.8909999999999987,20,18,5,7,121,56,5,7,5,0.5,36,5.25,5,L,0.18148760330578512,0.2450892857142857,0.20739999999999997,0.27014285714285713
48,1,1,0,5,34.952999999999975,20,173,38,48,43,5,37.02699999999997,0.183,4.574999999999997,3.2939999999999974,20,2,11,8,178,2,18,9,5,0.5,36,5.25,5,L,0.20801685393258423,0.0915,0.25416666666666665,0.36599999999999994
48,1,2,0,10,27.815999999999978,19,121,94,92,85,18,27.937999999999978,2.805999999999998,5.489999999999996,2.439999999999998,20,10,9,8,122,15,20,10,3,0.5,24,3.75,5,L,0.22899999999999998,0.18706666666666666,0.27449999999999997,0.24399999999999994
48,2,3,0,6,19.275999999999986,16,84,7,3,6,96,21.410999999999984,0.6099999999999999,1.524999999999999,2.561999999999998,20,5,6,4,92,6,7,6,6,0.5,39,5.25,5,L,0.2327282608695652,0.10166666666666667,0.21785714285714286,0.42699999999999994
48,2,4,0,2,39.22299999999997,19,181,53,58,54,35,40.74799999999997,1.646999999999999,5.123999999999996,0.6099999999999999,20,8,14,3,188,10,23,3,4,0.5,29,4.25,5,L,0.2167446808510638,0.16469999999999999,0.22278260869565214,0.20333333333333334
48,3,5,0,2,19.214999999999986,16,100,51,52,60,93,21.288999999999984,1.0979999999999994,0.183,8.905999999999993,20,7,2,15,111,8,2,36,4,0.5,27,3.75,5,L,0.1917927927927928,0.13724999999999998,0.0915,0.24738888888888888
48,3,6,0,5,83.69200000000222,17,361,43,20,108,16,84.66800000000222,3.2939999999999974,2.561999999999998,0.7929999999999997,20,10,11,5,368,12,14,5,5,0,19,4.75,5,L,0.2300760869565217,0.27449999999999997,0.183,0.1586
48,4,7,0,6,45.078999999999965,15,207,1,6,2,49,45.139999999999965,4.086999999999997,4.940999999999996,0.8539999999999996,16,13,12,4,208,22,25,4,6,0.5,40,5.5,5,L,0.21701923076923074,0.18577272727272726,0.19763999999999998,0.2135
48,4,8,0,7,16.28699999999999,17,80,20,91,22,37,16.713999999999988,10.308999999999992,0.244,24.33899999999998,19,14,1,14,83,31,1,97,6,0,20,5,5,L,0.2013734939759036,0.33254838709677415,0.244,0.25091752577319587
49,1,1,0,1,26.35199999999998,17,126,75,74,84,76,27.693999999999978,1.4029999999999991,0.366,3.781999999999997,20,7,2,12,133,8,2,19,3,1,36,3,6,L,0.20822556390977442,0.17537499999999998,0.183,0.19905263157894734
49,1,2,0,3,33.549999999999976,19,160,17,19,53,89,58.31599999999996,11.345999999999991,0.6099999999999999,0.366,20,17,4,2,252,51,5,2,5,0,19,4.75,6,L,0.2314126984126984,0.22247058823529411,0.122,0.183
49,2,3,0,8,26.22999999999998,18,126,115,41,17,55,28.791999999999977,5.062999999999996,3.1719999999999975,1.8909999999999987,20,13,10,5,139,22,15,8,2,0,17,4.25,6,L,0.207136690647482,0.2301363636363636,0.21146666666666666,0.236375
49,2,4,0,4,31.963999999999974,19,144,104,106,107,97,32.39099999999998,1.585999999999999,0.061,0.5489999999999999,20,8,1,3,146,9,1,3,2,1,24,2,6,L,0.22185616438356162,0.17622222222222222,0.061,0.183
49,3,5,0,1,27.14499999999998,14,112,76,78,74,77,27.815999999999978,0.366,1.7689999999999988,5.916999999999995,18,2,6,14,116,2,7,25,3,1,36,3,6,L,0.23979310344827584,0.183,0.25271428571428567,0.23667999999999997
49,3,6,0,7,50.26399999999996,14,228,23,18,52,31,50.75199999999996,4.574999999999997,0.122,2.683999999999998,16,12,2,8,230,22,2,12,6,0,21,5.25,6,L,0.22066086956521738,0.20795454545454545,0.061,0.22366666666666665
49,4,7,0,5,23.301999999999982,19,107,45,48,57,50,23.48499999999998,0.7929999999999997,6.709999999999995,0.122,20,2,16,1,109,2,34,1,5,0,18,4.5,6,L,0.21545871559633026,0.39649999999999996,0.19735294117647056,0.122
49,4,8,0,9,35.501999999999974,16,152,72,63,67,13,37.69799999999997,0.8539999999999996,0.183,1.7689999999999988,20,4,2,8,161,4,2,10,4,0.5,30,4.5,6,L,0.23414906832298135,0.2135,0.0915,0.1769
49,5,9,0,9,25.31499999999998,19,126,40,67,63,69,37.51499999999997,1.585999999999999,0.7319999999999998,0.366,20,6,5,4,169,7,5,4,4,0.5,29,4.25,6,L,0.22198224852071002,0.22657142857142856,0.1464,0.0915
49,5,10,0,3,40.86999999999997,15,171,25,33,96,6,43.49299999999997,8.295999999999994,8.234999999999994,3.3549999999999973,20,16,16,12,186,34,35,17,5,0,19,4.75,6,L,0.2338333333333333,0.24399999999999997,0.23528571428571426,0.1973529411764706
50,1,1,0,8,22.752999999999982,16,101,116,120,117,110,22.813999999999982,0.488,0.8539999999999996,2.1349999999999985,17,2,3,10,102,2,4,11,2,1,24,2,5,L,0.22366666666666662,0.244,0.2135,0.1940909090909091
50,1,2,0,3,48.49499999999996,13,216,35,32,55,34,50.44699999999996,0.366,1.2809999999999993,2.3789999999999982,19,2,3,8,222,2,4,12,5,0.5,34,4.75,5,L,0.2272387387387387,0.183,0.3202499999999999,0.19824999999999998
50,2,3,0,8,21.898999999999983,19,118,118,117,112,109,21.959999999999983,2.561999999999998,0.7319999999999998,2.2569999999999983,20,7,5,6,119,8,5,7,2,1,24,2,5,L,0.18453781512605041,0.3202499999999999,0.1464,0.3224285714285714
50,2,4,0,6,22.203999999999983,17,106,8,12,10,27,22.569999999999983,2.2569999999999983,7.502999999999994,0.6099999999999999,19,10,14,4,108,10,34,4,6,0.5,41,5.75,5,L,0.20898148148148146,0.22569999999999998,0.22067647058823528,0.1525
50,3,5,0,10,55.387999999999955,13,267,91,96,95,13,55.936999999999955,0.6099999999999999,7.014999999999994,4.513999999999997,15,4,13,9,270,4,34,17,3,0.5,24,3.75,5,L,0.20717407407407407,0.1525,0.20632352941176468,0.26552941176470585
50,3,6,0,2,42.51699999999997,13,182,59,106,3,83,42.69999999999997,16.713999999999988,0.366,0.7319999999999998,14,18,1,3,183,79,1,3,4,0,15,3.75,5,L,0.2333333333333333,0.21156962025316456,0.366,0.244
50,4,7,0,6,17.018999999999988,20,77,5,3,4,7,17.079999999999988,1.646999999999999,0.366,0.366,20,6,3,2,78,8,3,2,6,1,72,6,5,L,0.21897435897435896,0.205875,0.122,0.183
50,4,8,0,10,57.64499999999995,18,250,91,93,94,17,57.70599999999995,0.8539999999999996,0.6709999999999998,16.530999999999988,19,5,4,17,251,5,4,60,3,0.5,24,3.75,5,L,0.2299043824701195,0.17079999999999998,0.16775,0.27551666666666663
51,1,1,0,2,25.13199999999998,18,122,57,55,1,2,26.59599999999998,0.488,5.001999999999996,5.245999999999996,20,4,9,11,126,4,18,18,4,0,20,5,6,L,0.21107936507936506,0.122,0.27788888888888885,0.2914444444444444
51,1,2,0,9,31.719999999999974,11,142,62,69,67,16,33.183999999999976,3.476999999999997,1.2199999999999993,1.585999999999999,14,10,3,4,145,13,3,5,4,0.5,30,4.5,6,L,0.22885517241379308,0.2674615384615384,0.4066666666666666,0.3172
51,2,3,0,7,35.684999999999974,20,145,18,64,67,91,36.41699999999997,14.761999999999988,2.683999999999998,1.2199999999999993,20,18,13,6,152,61,14,8,6,0,17,4.25,6,L,0.23958552631578944,0.24199999999999997,0.1917142857142857,0.1525
51,2,4,0,1,14.700999999999988,20,65,75,83,80,54,15.859999999999987,1.1589999999999994,0.5489999999999999,1.7079999999999989,20,5,2,6,70,5,2,7,3,0.5,22,3.25,6,L,0.22657142857142856,0.23179999999999998,0.27449999999999997,0.244
51,3,5,0,7,22.447999999999983,16,113,17,13,21,37,22.508999999999983,0.8539999999999996,27.327999999999978,0.305,17,4,17,2,114,4,93,2,6,0.5,41,5.75,6,L,0.19744736842105262,0.2135,0.29384946236559134,0.1525
51,3,6,0,2,18.360999999999986,19,84,54,57,58,27,18.604999999999986,0.6099999999999999,1.1589999999999994,11.223999999999991,20,1,6,16,86,1,6,46,4,0.5,29,4.25,6,L,0.21633720930232556,0.6099999999999999,0.19316666666666665,0.244
