Subject,Round,Phase,afterbreak,Schema,Schema_RT,Schema_OB,Schema_AS,Cho_1,Cho_2,Cho_3,Cho_4,RT_1,RT_2,RT_3,RT_4,OB_1,OB_2,OB_3,OB_4,AS_1,AS_2,AS_3,AS_4,schema_payoff,AC,performance,payoff,breakR,type,dwellmean_1,dwellmean_2,dwellmean_3,dwellmean_4
1,1,1,0,3,32.08599999999998,17,142,26,27,31,33,32.39099999999998,0.9149999999999996,3.9649999999999967,6.648999999999995,19,3,13,17,144,3,16,32,5,1,60,5,5,L,0.22493749999999998,0.305,0.2478125,0.20778125
1,1,2,0,5,50.75199999999996,17,225,43,38,18,62,51.78899999999996,0.9759999999999995,2.561999999999998,6.099999999999995,20,4,7,12,233,5,9,23,5,0,20,5,5,L,0.22227038626609438,0.19519999999999998,0.28466666666666657,0.2652173913043478
1,2,3,0,4,27.205999999999978,19,117,103,107,105,9,27.754999999999978,0.6099999999999999,1.7079999999999989,2.0739999999999985,20,4,9,8,122,4,12,9,2,0.5,18,3,5,L,0.22749999999999998,0.1525,0.14233333333333334,0.23044444444444442
1,2,4,0,1,19.031999999999986,20,100,83,84,14,74,22.142999999999983,0.305,7.319999999999994,0.305,20,2,13,3,114,2,29,3,3,0.5,24,3.75,5,L,0.19423684210526315,0.1525,0.25241379310344825,0.10166666666666667
1,3,5,0,1,26.59599999999998,20,124,35,58,76,74,32.87899999999998,9.088999999999993,1.0979999999999994,0.6099999999999999,20,17,4,3,153,37,5,3,3,0,15,3.75,5,L,0.2148954248366013,0.24564864864864863,0.21959999999999996,0.20333333333333334
1,3,6,0,10,41.60199999999997,12,191,14,92,91,20,60.51199999999996,1.2809999999999993,2.0129999999999986,1.0369999999999995,20,7,5,4,266,8,5,4,3,0,18,4.5,5,L,0.22748872180451124,0.160125,0.4025999999999999,0.25925
1,4,7,0,8,23.362999999999982,19,118,112,73,84,83,24.33899999999998,11.467999999999991,2.439999999999998,4.879999999999996,20,16,13,14,124,56,17,33,2,0.5,20,2.75,5,L,0.19628225806451613,0.20478571428571427,0.14352941176470588,0.1478787878787879
1,4,8,0,4,15.432999999999987,19,85,103,36,104,3,18.543999999999986,19.092999999999986,2.2569999999999983,31.780999999999974,20,16,9,16,95,85,10,136,2,0,15,3.75,5,L,0.19519999999999998,0.2246235294117647,0.22569999999999998,0.23368382352941175
2,1,1,0,4,16.16499999999999,17,75,102,100,8,106,17.567999999999987,0.6099999999999999,6.8929999999999945,0.6709999999999998,20,4,15,5,82,4,30,5,2,0.5,18,3,6,L,0.2142439024390244,0.1525,0.22976666666666665,0.13419999999999999
2,1,2,0,7,18.665999999999986,20,101,22,18,16,21,20.983999999999984,0.122,5.428999999999996,0.061,20,1,12,1,111,1,19,1,6,1,72,6,6,L,0.18904504504504505,0.122,0.2857368421052631,0.061
2,2,3,0,8,57.461999999999954,14,220,119,110,115,43,58.25499999999995,0.305,1.646999999999999,1.9519999999999986,18,1,8,6,224,1,8,10,2,0.5,17,2.75,6,L,0.26006696428571424,0.305,0.205875,0.19519999999999998
2,2,4,0,3,19.946999999999985,19,107,26,1,31,55,21.227999999999984,5.367999999999996,4.269999999999997,8.295999999999994,20,12,11,16,113,21,16,30,5,0,20,5,6,L,0.18785840707964602,0.2556190476190476,0.266875,0.2765333333333333
2,3,5,0,7,44.041999999999966,14,195,23,20,18,19,45.139999999999965,2.744999999999998,2.622999999999998,1.1589999999999994,20,8,9,3,202,8,11,4,6,1,72,6,6,L,0.22346534653465344,0.3431249999999999,0.23845454545454545,0.28974999999999995
2,3,6,0,1,20.678999999999984,19,89,78,82,26,9,22.691999999999982,0.6709999999999998,12.68799999999999,6.404999999999995,20,2,16,16,97,2,45,27,3,0,17,4.25,6,L,0.23393814432989687,0.3354999999999999,0.2819555555555555,0.2372222222222222
2,4,7,0,3,18.726999999999986,17,88,36,7,30,1,21.654999999999983,12.50499999999999,0.183,11.101999999999991,20,13,1,16,98,36,1,50,5,0,22,5.5,6,L,0.22096938775510203,0.34736111111111106,0.183,0.22204
2,4,8,0,5,16.40899999999999,18,82,44,21,93,19,16.469999999999988,12.50499999999999,7.8689999999999936,3.720999999999997,19,15,15,14,83,48,39,18,5,0,20,5,6,L,0.19843373493975902,0.2605208333333333,0.20176923076923076,0.2067222222222222
2,5,9,0,10,13.17599999999999,20,68,11,12,5,6,37.33199999999997,0.7319999999999998,2.2569999999999983,10.796999999999992,20,4,9,17,171,4,10,47,3,1,72,6,6,L,0.21831578947368419,0.183,0.22569999999999996,0.22972340425531915
2,5,10,0,7,16.652999999999988,18,64,20,13,29,28,16.713999999999988,17.323999999999987,0.183,1.524999999999999,19,17,1,5,65,82,1,5,6,0,22,5.5,6,L,0.2571384615384615,0.2112682926829268,0.183,0.30499999999999994
3,1,1,0,3,28.425999999999977,18,142,27,26,25,4,29.584999999999976,1.3419999999999992,0.5489999999999999,11.040999999999991,20,7,2,17,150,8,2,49,5,0.5,36,5.25,6,L,0.19723333333333332,0.16775,0.27449999999999997,0.2253265306122449
3,1,2,0,9,26.90099999999998,19,123,69,64,66,38,27.08399999999998,0.244,0.366,3.842999999999997,20,2,2,8,125,2,2,18,4,0.5,29,4.25,6,L,0.21667199999999998,0.122,0.183,0.2135
3,2,3,0,5,15.188999999999988,15,74,44,50,87,94,16.774999999999988,19.214999999999986,9.027999999999993,0.6709999999999998,20,18,14,3,83,77,37,4,5,0,15,3.75,6,L,0.20210843373493975,0.24954545454545451,0.24399999999999997,0.16775
3,2,4,0,3,10.735999999999992,16,57,1,30,3,5,23.42399999999998,0.061,0.183,10.247999999999992,20,1,1,16,116,1,1,44,5,0.5,41,5.75,6,L,0.20193103448275862,0.061,0.183,0.23290909090909087
3,3,5,0,10,62.89099999999995,13,254,92,50,96,16,65.14799999999995,1.8299999999999987,2.3179999999999983,2.622999999999998,20,7,11,6,265,8,12,10,3,0,16,4,6,L,0.24584150943396224,0.22874999999999998,0.19316666666666665,0.2623
3,3,6,0,9,22.020999999999983,18,118,72,69,8,66,23.54599999999998,5.7949999999999955,0.122,0.061,20,18,1,1,127,25,1,1,4,0.5,30,4.5,6,L,0.1854015748031496,0.23179999999999998,0.122,0.061
3,4,7,0,6,13.846999999999989,16,76,3,5,8,67,15.371999999999987,1.4029999999999991,0.183,6.282999999999995,20,3,2,13,83,4,2,21,6,0.5,40,5.5,6,L,0.18520481927710844,0.35074999999999995,0.0915,0.2991904761904762
3,4,8,0,5,37.57599999999997,20,169,46,41,95,37,37.69799999999997,1.646999999999999,1.0369999999999995,4.818999999999996,20,8,5,11,171,9,5,14,5,0.5,33,4.5,6,L,0.22045614035087718,0.183,0.2074,0.34421428571428564
3,5,9,0,3,45.078999999999965,17,194,31,34,36,10,45.261999999999965,0.122,5.428999999999996,8.173999999999994,18,1,9,14,195,1,18,30,5,0.5,36,5.25,6,L,0.23211282051282048,0.122,0.30161111111111105,0.27246666666666663
3,5,10,0,7,17.262999999999987,13,89,16,22,24,23,17.750999999999987,3.903999999999997,0.183,3.720999999999997,15,11,2,11,91,13,2,14,6,1,72,6,6,L,0.19506593406593406,0.3003076923076922,0.0915,0.2657857142857143
4,1,1,0,8,17.750999999999987,14,85,118,114,111,117,18.604999999999986,1.463999999999999,1.1589999999999994,2.1959999999999984,16,5,5,8,87,5,5,8,2,1,24,2,6,L,0.21385057471264365,0.2927999999999999,0.23179999999999995,0.27449999999999997
4,1,2,0,2,37.45399999999997,18,155,54,55,10,49,37.51499999999997,2.0739999999999985,7.014999999999994,0.7319999999999998,19,7,15,7,156,9,25,8,4,0.5,30,4.5,6,L,0.2404807692307692,0.23044444444444442,0.28059999999999996,0.0915
4,2,3,0,1,35.745999999999974,14,156,45,82,78,43,37.57599999999997,0.9149999999999996,0.061,3.598999999999997,19,4,1,9,162,4,1,17,3,0,16,4,6,L,0.23195061728395058,0.22875,0.061,0.21170588235294116
4,2,4,0,3,25.86399999999998,11,116,29,25,28,32,27.937999999999978,0.244,1.0979999999999994,0.183,20,1,4,1,127,3,4,1,5,1,60,5,6,L,0.2199842519685039,0.08133333333333333,0.27449999999999997,0.183
4,3,5,0,5,40.86999999999997,19,172,41,45,16,48,41.29699999999997,4.330999999999997,1.1589999999999994,4.6969999999999965,20,12,4,13,175,23,5,21,5,0.5,36,5.25,6,L,0.23598285714285713,0.18830434782608693,0.23179999999999998,0.22366666666666665
4,3,6,0,6,16.34799999999999,19,81,12,1,9,8,18.726999999999986,7.563999999999994,0.305,0.7319999999999998,20,16,2,5,87,28,2,5,6,1,72,6,6,L,0.21525287356321837,0.27014285714285713,0.1525,0.1464
4,4,7,0,6,14.761999999999988,15,60,9,6,30,1,14.822999999999988,0.244,13.11499999999999,15.066999999999988,16,2,14,16,61,2,42,57,6,0.5,41,5.75,6,L,0.243,0.122,0.31226190476190474,0.2643333333333333
4,4,8,0,8,30.926999999999975,19,147,117,119,116,42,31.292999999999974,0.305,2.0129999999999986,3.598999999999997,20,2,8,10,149,2,11,13,2,0.5,17,2.75,6,L,0.2100201342281879,0.1525,0.183,0.2768461538461538
4,5,9,0,1,12.62699999999999,18,71,79,84,81,34,18.177999999999987,0.061,2.805999999999998,16.22599999999999,20,1,10,16,91,1,15,66,3,0.5,23,3.5,6,L,0.19975824175824175,0.061,0.18706666666666666,0.24584848484848482
4,5,10,0,6,56.729999999999954,12,226,10,4,40,53,57.70599999999995,1.7689999999999988,1.0369999999999995,7.502999999999994,16,9,3,13,230,10,5,27,6,0,21,5.25,6,L,0.250895652173913,0.1769,0.2074,0.27788888888888885
5,1,1,0,5,36.11199999999997,18,181,42,19,109,90,40.93099999999997,3.537999999999997,2.1959999999999984,0.488,20,13,7,4,201,18,9,5,5,0,16,4,6,L,0.203636815920398,0.19655555555555554,0.24399999999999997,0.09759999999999999
5,1,2,0,9,30.011999999999976,20,129,70,64,3,5,33.244999999999976,4.086999999999997,8.722999999999994,2.744999999999998,20,13,17,14,137,18,34,18,4,0,20,5,6,L,0.2426642335766423,0.22705555555555554,0.25655882352941173,0.1525
5,2,3,0,8,13.724999999999989,19,68,23,119,44,115,24.15599999999998,0.7929999999999997,2.439999999999998,0.488,20,5,10,4,119,5,14,5,2,0,15,3.75,6,L,0.20299159663865546,0.1586,0.1742857142857143,0.09759999999999999
5,2,4,0,3,48.61699999999996,16,234,26,32,27,11,49.04399999999996,0.6099999999999999,1.1589999999999994,2.2569999999999983,17,3,6,9,235,3,7,14,5,0.5,36,5.25,6,L,0.2086978723404255,0.20333333333333334,0.16557142857142856,0.1612142857142857
5,3,5,0,7,32.26899999999998,15,158,18,72,68,24,32.32999999999998,8.356999999999994,1.0369999999999995,4.208999999999997,16,14,6,13,159,33,6,18,6,0,20,5,6,L,0.2033333333333333,0.2532424242424242,0.17283333333333334,0.2338333333333333
5,3,6,0,2,24.27799999999998,20,110,50,54,53,26,25.07099999999998,1.0369999999999995,1.0369999999999995,5.428999999999996,20,3,6,15,115,3,6,31,4,0.5,29,4.25,6,L,0.2180086956521739,0.3456666666666666,0.17283333333333334,0.1751290322580645
5,4,7,0,10,38.24699999999997,19,177,89,110,96,87,38.42999999999997,0.7929999999999997,0.7319999999999998,0.8539999999999996,20,2,5,4,178,2,5,4,3,0.5,20,2.75,6,L,0.21589887640449437,0.39649999999999996,0.1464,0.2135
5,4,8,0,4,20.312999999999985,20,91,101,108,100,98,20.495999999999984,0.122,2.561999999999998,0.7319999999999998,20,1,9,7,93,1,11,7,2,1,24,2,6,L,0.22038709677419352,0.122,0.2329090909090909,0.10457142857142857
5,5,9,0,5,49.59299999999996,13,234,45,46,43,112,52.33799999999996,1.0369999999999995,1.3419999999999992,0.427,20,4,6,3,246,4,6,3,5,0.5,32,4.25,6,L,0.2127560975609756,0.25925,0.22366666666666665,0.14233333333333334
5,5,10,0,3,25.68099999999998,16,120,32,31,34,16,25.80299999999998,3.9649999999999967,0.061,3.1109999999999975,17,11,1,8,121,15,1,12,5,0.5,36,5.25,6,L,0.2132479338842975,0.2643333333333333,0.061,0.25925
6,1,1,0,6,36.05099999999997,16,160,3,7,58,40,36.35599999999997,0.9149999999999996,5.7339999999999955,2.2569999999999983,19,4,12,7,163,5,20,10,6,0,21,5.25,6,L,0.22304294478527606,0.183,0.28669999999999995,0.22569999999999998
6,1,2,0,8,27.388999999999978,19,132,118,110,113,32,27.632999999999978,0.122,2.439999999999998,4.452999999999997,20,1,7,11,133,1,12,19,2,0.5,17,2.75,6,L,0.20776691729323307,0.122,0.20333333333333334,0.2343684210526316
6,2,3,0,10,27.571999999999978,20,137,85,95,15,14,27.632999999999978,3.842999999999997,5.489999999999996,6.8929999999999945,20,14,14,12,138,19,27,24,3,0,18,4.5,6,L,0.2002391304347826,0.20226315789473684,0.2033333333333333,0.2872083333333333
6,2,4,0,1,29.828999999999976,19,128,81,76,41,4,31.902999999999974,3.1719999999999975,2.2569999999999983,7.563999999999994,20,11,5,15,137,14,6,33,3,0,17,4.25,6,L,0.23286861313868612,0.22657142857142856,0.3761666666666666,0.2292121212121212
6,3,5,0,9,17.811999999999987,11,95,71,61,63,13,19.519999999999985,1.7689999999999988,0.183,4.879999999999996,20,6,2,8,105,6,2,17,4,0.5,30,4.5,6,L,0.1859047619047619,0.29483333333333334,0.0915,0.28705882352941176
6,3,6,0,2,14.029999999999989,18,66,58,49,55,53,14.578999999999988,2.805999999999998,0.305,3.3549999999999973,20,11,2,7,69,14,2,8,4,1,48,4,6,L,0.21128985507246376,0.20042857142857143,0.1525,0.4193749999999999
6,4,7,0,3,25.13199999999998,18,116,26,33,11,72,25.25399999999998,2.0129999999999986,12.26099999999999,2.8669999999999978,20,6,15,8,118,6,53,12,5,0,20,5,6,L,0.21401694915254235,0.33549999999999996,0.23133962264150942,0.23891666666666667
6,4,8,0,5,16.530999999999988,14,81,42,44,19,22,17.384999999999987,7.8689999999999936,13.23699999999999,0.5489999999999999,17,16,17,4,84,39,52,4,5,0,22,5.5,6,L,0.2069642857142857,0.20176923076923076,0.25455769230769226,0.13724999999999998
6,5,9,0,7,7.319999999999994,15,39,15,17,19,24,8.478999999999994,2.1959999999999984,2.439999999999998,5.367999999999996,20,7,7,14,45,8,7,22,6,1,72,6,6,L,0.1884222222222222,0.27449999999999997,0.3485714285714285,0.24399999999999994
6,5,10,0,6,20.922999999999984,15,92,5,9,8,1,24.88799999999998,0.061,1.585999999999999,2.3179999999999983,20,1,8,8,106,1,11,8,6,1,72,6,6,L,0.23479245283018865,0.061,0.1441818181818182,0.28974999999999995
7,1,1,0,4,44.224999999999966,14,210,98,104,99,58,44.468999999999966,0.061,1.0369999999999995,4.879999999999996,15,1,3,10,211,1,3,18,2,0.5,16,2.5,6,L,0.21075355450236966,0.061,0.3456666666666666,0.2711111111111111
7,1,2,0,10,46.298999999999964,15,231,85,90,96,18,50.69099999999996,0.366,4.330999999999997,6.648999999999995,20,3,11,14,251,3,21,26,3,0.5,24,3.75,6,L,0.20195617529880477,0.122,0.20623809523809522,0.2557307692307692
7,2,3,0,6,18.970999999999986,15,73,4,12,1,10,22.081999999999983,0.7319999999999998,2.8669999999999978,0.427,20,4,11,2,83,4,12,2,6,1,72,6,6,L,0.26604819277108427,0.183,0.23891666666666667,0.2135
7,2,4,0,1,18.726999999999986,20,88,79,13,20,23,18.848999999999986,8.844999999999994,4.391999999999997,0.183,20,16,11,1,90,37,19,1,3,0.5,39,5.25,6,L,0.2094333333333333,0.23905405405405403,0.2311578947368421,0.183
7,3,5,0,5,17.140999999999988,19,88,1,4,90,111,34.708999999999975,3.2329999999999974,1.0979999999999994,5.062999999999996,20,13,7,13,143,15,8,20,5,0,17,4.25,6,L,0.24272027972027968,0.21553333333333333,0.13724999999999998,0.25315
7,3,6,0,7,20.251999999999985,19,96,13,16,21,77,20.312999999999985,2.744999999999998,2.439999999999998,8.478999999999994,20,10,9,13,97,12,14,33,6,0.5,39,5.25,6,L,0.2094123711340206,0.22875,0.1742857142857143,0.2569393939393939
7,4,7,0,9,53.43599999999996,13,233,69,72,29,64,53.49699999999996,1.0369999999999995,6.648999999999995,1.463999999999999,14,4,14,4,234,4,26,4,4,0.5,29,4.25,6,L,0.2286196581196581,0.25925,0.2557307692307692,0.36599999999999994
7,4,8,0,7,29.035999999999976,17,132,16,13,22,37,29.096999999999976,1.8909999999999987,0.061,14.090999999999989,18,8,1,17,133,8,1,61,6,0.5,41,5.75,6,L,0.21877443609022554,0.23637499999999997,0.061,0.23099999999999998
7,5,9,0,4,55.082999999999956,10,257,105,103,4,33,55.326999999999956,2.1349999999999985,12.38299999999999,4.6969999999999965,12,5,18,10,259,6,51,18,2,0,15,3.75,6,L,0.2136177606177606,0.3558333333333332,0.2428039215686274,0.2609444444444444
7,5,10,0,10,31.109999999999975,17,155,15,19,64,86,45.139999999999965,8.478999999999994,3.598999999999997,0.7319999999999998,20,17,12,5,223,38,15,5,3,0,19,4.75,6,L,0.2024215246636771,0.22313157894736838,0.2399333333333333,0.1464
8,1,1,0,9,30.316999999999975,17,154,67,31,4,5,31.292999999999974,2.805999999999998,1.1589999999999994,8.966999999999993,20,7,5,14,157,8,6,39,4,0,21,5.25,6,L,0.1993184713375796,0.35074999999999995,0.19316666666666665,0.22992307692307692
8,1,2,0,8,9.881999999999993,18,52,118,111,115,112,15.06699999999999,0.9149999999999996,1.2199999999999993,0.366,20,4,6,2,82,4,6,2,2,1,24,2,6,L,0.1837439024390244,0.22874999999999995,0.20333333333333328,0.183
8,2,3,0,3,19.641999999999985,19,100,6,27,36,25,27.571999999999978,0.061,0.488,0.183,20,1,3,1,121,1,3,1,5,0.5,36,5.25,6,L,0.2278677685950413,0.061,0.16266666666666665,0.183
8,2,4,0,5,39.46699999999997,14,167,63,86,13,23,51.60599999999996,1.524999999999999,0.5489999999999999,0.061,20,7,1,1,220,7,1,1,5,0,19,4.75,6,L,0.23457272727272724,0.21785714285714286,0.5489999999999999,0.061
8,3,5,0,7,20.922999999999984,19,100,22,13,20,52,22.874999999999982,1.524999999999999,2.0129999999999986,10.918999999999992,20,8,6,15,109,9,7,47,6,0.5,40,5.5,6,L,0.2098623853211009,0.16944444444444445,0.28757142857142853,0.2323191489361702
8,3,6,0,8,8.844999999999994,17,39,61,118,116,120,26.412999999999982,0.061,0.244,0.6099999999999999,20,1,2,2,127,1,2,2,2,0.5,16,2.5,6,L,0.2079763779527559,0.061,0.122,0.30499999999999994
8,4,7,0,9,41.72399999999997,17,193,62,67,72,65,42.51699999999997,3.659999999999997,4.147999999999997,0.122,20,13,9,2,196,18,17,2,4,1,48,4,6,L,0.21692346938775509,0.2033333333333333,0.24399999999999997,0.061
8,4,8,0,4,26.47399999999998,16,113,108,103,100,97,27.754999999999978,3.598999999999997,0.061,0.6099999999999999,20,11,1,4,120,15,1,4,2,1,24,2,6,L,0.23129166666666665,0.2399333333333333,0.061,0.1525
8,5,9,0,5,15.798999999999987,19,89,45,47,43,40,18.543999999999986,4.452999999999997,0.366,1.585999999999999,20,12,3,3,100,18,3,3,5,1,60,5,6,L,0.18544,0.24738888888888885,0.122,0.5286666666666664
8,5,10,0,1,19.214999999999986,20,98,83,84,77,25,20.007999999999985,0.061,0.9149999999999996,16.40899999999999,20,1,7,15,105,1,8,65,3,0.5,23,3.5,6,L,0.19055238095238095,0.061,0.114375,0.2524461538461538
9,1,1,0,5,14.151999999999989,18,73,45,3,48,91,14.700999999999988,6.282999999999995,0.5489999999999999,7.136999999999994,20,14,6,15,75,28,6,29,5,0,19,4.75,6,L,0.19601333333333332,0.22439285714285714,0.0915,0.24610344827586203
9,1,2,0,2,24.76599999999998,20,114,57,59,80,14,29.218999999999976,0.122,9.393999999999993,1.2199999999999993,20,2,13,5,128,2,29,6,4,0,17,4.25,6,L,0.22827343749999998,0.061,0.32393103448275856,0.20333333333333334
9,2,3,0,10,24.27799999999998,18,109,33,88,92,89,42.57799999999997,0.061,0.6099999999999999,0.061,20,1,2,1,189,1,2,1,3,0.5,23,3.5,6,L,0.22528042328042325,0.061,0.30499999999999994,0.061
9,2,4,0,1,36.78299999999997,19,172,73,68,41,21,36.90499999999997,9.088999999999993,0.305,3.2939999999999974,20,16,2,10,174,42,2,15,3,0,18,4.5,6,L,0.21209770114942528,0.21640476190476188,0.1525,0.21959999999999996
9,3,5,0,9,27.754999999999978,18,124,61,62,65,20,28.425999999999977,0.8539999999999996,1.2809999999999993,0.5489999999999999,20,3,3,3,127,4,3,3,4,0.5,30,4.5,6,L,0.22382677165354328,0.2135,0.4269999999999999,0.183
9,3,6,0,4,24.27799999999998,14,105,12,51,53,108,33.976999999999975,7.563999999999994,2.0739999999999985,1.4029999999999991,20,15,6,6,151,35,6,6,2,0,16,4,6,L,0.22501324503311257,0.2161142857142857,0.34566666666666657,0.23383333333333334
9,4,7,0,5,30.682999999999975,20,145,38,45,42,43,31.719999999999974,0.244,3.1719999999999975,2.0129999999999986,20,1,11,11,149,1,13,12,5,1,60,5,6,L,0.21288590604026844,0.244,0.24399999999999997,0.16775
9,4,8,0,8,26.65699999999998,17,122,110,118,22,115,28.364999999999977,0.488,1.7689999999999988,0.061,20,3,6,1,132,4,7,1,2,0.5,18,3,6,L,0.21488636363636363,0.122,0.2527142857142857,0.061
9,5,9,0,6,18.604999999999986,17,73,5,2,11,116,18.787999999999986,0.061,4.818999999999996,7.319999999999994,19,1,11,14,75,1,19,34,6,0.5,38,5,6,L,0.25050666666666666,0.061,0.2536315789473684,0.2152941176470588
9,5,10,0,4,26.83999999999998,20,107,97,106,101,103,27.571999999999978,1.0369999999999995,2.2569999999999983,0.427,20,6,7,4,109,6,8,4,2,1,24,2,6,L,0.25295412844036697,0.17283333333333334,0.28212499999999996,0.10675
10,1,1,0,10,21.410999999999984,14,87,90,93,89,25,24.09499999999998,0.122,0.305,7.9299999999999935,20,2,1,14,102,2,1,36,3,0.5,23,3.5,6,L,0.2362254901960784,0.061,0.305,0.22027777777777777
10,1,2,0,8,14.456999999999988,19,79,118,112,116,117,14.700999999999988,0.6709999999999998,0.9759999999999995,0.305,20,5,8,1,82,5,10,1,2,1,24,2,6,L,0.17928048780487804,0.13419999999999999,0.09759999999999999,0.305
10,2,3,0,9,24.58299999999998,15,115,67,69,61,10,25.13199999999998,3.598999999999997,2.0739999999999985,0.9149999999999996,17,12,4,4,117,22,6,6,4,0.5,30,4.5,6,L,0.21480341880341877,0.1635909090909091,0.3456666666666666,0.1525
10,2,4,0,7,26.04699999999998,14,121,13,17,18,22,27.693999999999978,2.683999999999998,2.9889999999999977,0.122,19,8,9,2,128,11,12,2,6,1,72,6,6,L,0.216359375,0.24399999999999997,0.24908333333333332,0.061
10,3,5,0,3,30.743999999999975,16,140,30,28,15,14,31.658999999999974,2.9889999999999977,32.02499999999998,6.770999999999995,20,10,18,15,145,14,122,25,5,0,22,5.5,6,L,0.21833793103448274,0.21349999999999997,0.26249999999999996,0.27083999999999997
10,3,6,0,10,22.325999999999983,14,109,7,90,50,95,43.980999999999966,0.7319999999999998,0.488,1.7079999999999989,20,4,2,6,185,4,2,6,3,0,16,4,6,L,0.2377351351351351,0.183,0.244,0.2846666666666666
10,4,7,0,1,39.58899999999997,15,169,73,77,81,75,39.77199999999997,0.427,0.427,0.427,16,2,1,3,171,2,2,3,3,1,36,3,6,L,0.23258479532163742,0.2135,0.2135,0.14233333333333334
10,4,8,0,10,38.55199999999997,13,157,88,91,86,92,40.13799999999997,0.305,0.427,0.061,18,3,2,1,162,3,2,1,3,1,36,3,6,L,0.2477654320987654,0.10166666666666667,0.2135,0.061
10,5,9,0,3,47.57999999999996,19,191,28,35,33,26,47.64099999999996,0.366,0.6709999999999998,5.7949999999999955,20,3,4,13,192,3,4,30,5,1,60,5,6,L,0.24813020833333332,0.122,0.16775,0.19316666666666665
10,5,10,0,9,61.36599999999995,13,280,64,8,72,86,62.46399999999995,1.2809999999999993,4.879999999999996,5.977999999999995,17,4,13,12,285,5,19,21,4,0,17,4.25,6,L,0.21917192982456138,0.25619999999999993,0.25684210526315787,0.2846666666666666
11,1,1,0,4,33.976999999999975,19,166,105,107,13,97,34.159999999999975,2.683999999999998,0.7929999999999997,0.244,20,7,1,2,167,8,1,2,2,0.5,18,3,6,L,0.2045508982035928,0.3354999999999999,0.7929999999999997,0.122
11,1,2,0,2,19.458999999999985,19,89,57,52,87,4,20.922999999999984,1.646999999999999,3.903999999999997,2.3179999999999983,20,11,8,10,95,11,12,13,4,0,17,4.25,6,L,0.22024210526315788,0.14972727272727274,0.32533333333333325,0.1783076923076923
11,2,3,0,10,33.671999999999976,17,168,94,88,95,92,34.586999999999975,1.0369999999999995,3.2329999999999974,6.282999999999995,20,7,12,12,172,8,18,28,3,1,36,3,6,L,0.20108720930232557,0.129625,0.1796111111111111,0.22439285714285714
11,2,4,0,6,24.94899999999998,16,135,1,28,6,71,25.00999999999998,4.940999999999996,2.744999999999998,1.9519999999999986,17,11,11,8,136,22,15,10,6,0,21,5.25,6,L,0.1838970588235294,0.22459090909090906,0.183,0.19519999999999998
11,3,5,0,10,22.813999999999982,20,112,93,92,90,34,22.874999999999982,0.305,6.221999999999995,4.330999999999997,20,1,13,13,113,1,29,21,3,0.5,23,3.5,6,L,0.20243362831858405,0.305,0.214551724137931,0.20623809523809522
11,3,6,0,4,16.530999999999988,19,88,107,105,2,104,18.665999999999986,0.244,16.22599999999999,0.183,20,1,16,2,99,1,62,2,2,0.5,18,3,6,L,0.18854545454545454,0.244,0.2617096774193548,0.0915
11,4,7,0,2,24.52199999999998,17,101,59,50,51,48,25.55899999999998,1.3419999999999992,5.306999999999996,6.8929999999999945,20,6,14,13,104,7,28,24,4,0.5,29,4.25,6,L,0.24575961538461535,0.1917142857142857,0.18953571428571428,0.2872083333333333
11,4,8,0,9,44.163999999999966,16,207,65,33,61,10,44.407999999999966,2.561999999999998,0.7929999999999997,2.500999999999998,18,9,4,9,209,13,4,13,4,0,19,4.75,6,L,0.21247846889952152,0.19707692307692307,0.19824999999999998,0.19238461538461538
11,5,9,0,7,6.648999999999995,11,26,18,14,24,23,8.905999999999993,2.561999999999998,1.3419999999999992,0.366,17,7,3,3,34,13,3,3,6,1,72,6,6,L,0.26194117647058823,0.19707692307692307,0.4473333333333332,0.122
11,5,10,0,10,18.360999999999986,19,84,1,3,7,87,27.44999999999998,17.750999999999987,2.439999999999998,0.122,20,17,12,2,121,66,12,2,3,0.5,39,5.25,6,L,0.22685950413223138,0.2689545454545454,0.2033333333333333,0.061
12,1,1,0,9,25.13199999999998,18,134,43,67,66,69,35.806999999999974,1.0369999999999995,2.1349999999999985,2.683999999999998,20,5,6,13,174,5,6,13,4,0.5,29,4.25,6,L,0.20578735632183906,0.20739999999999997,0.3558333333333333,0.20646153846153845
12,1,2,0,1,14.822999999999988,20,79,9,80,74,60,17.933999999999987,0.244,1.8299999999999987,2.9889999999999977,20,2,7,9,92,2,8,14,3,0,16,4,6,L,0.19493478260869565,0.122,0.22875,0.2135
12,2,3,0,7,35.257999999999974,19,150,21,24,17,60,38.97899999999997,2.3179999999999983,2.9279999999999977,8.539999999999994,20,7,9,15,167,8,13,35,6,0.5,40,5.5,6,L,0.2334071856287425,0.28974999999999995,0.2252307692307692,0.24399999999999997
12,2,4,0,9,42.69999999999997,17,186,68,72,62,74,42.82199999999997,5.184999999999996,4.391999999999997,0.8539999999999996,18,15,16,2,187,23,26,2,4,0.5,27,3.75,6,L,0.2289946524064171,0.22543478260869562,0.16892307692307693,0.42699999999999994
12,3,5,0,10,44.224999999999966,16,194,95,85,37,96,45.871999999999964,3.2329999999999974,0.244,0.9149999999999996,20,15,1,6,208,21,1,6,3,0.5,23,3.5,6,L,0.22053846153846152,0.15395238095238095,0.244,0.1525
12,3,6,0,3,48.79999999999996,17,208,33,30,21,18,48.92199999999996,2.3789999999999982,7.380999999999994,3.903999999999997,18,12,17,12,209,13,33,17,5,0,22,5.5,6,L,0.2340765550239234,0.183,0.22366666666666665,0.2296470588235294
12,4,7,0,4,27.14499999999998,17,145,105,97,4,26,27.693999999999978,1.4029999999999991,11.83399999999999,7.258999999999994,20,7,17,14,148,8,47,34,2,0,15,3.75,6,L,0.1871216216216216,0.175375,0.25178723404255315,0.2135
12,4,8,0,2,14.395999999999988,19,74,50,53,57,59,15.859999999999987,0.7319999999999998,1.585999999999999,0.366,20,4,7,3,80,4,7,3,4,1,48,4,6,L,0.19824999999999998,0.183,0.22657142857142856,0.122
12,5,9,0,1,27.937999999999978,20,122,75,107,61,10,28.669999999999977,6.404999999999995,2.1959999999999984,2.9889999999999977,20,11,4,10,124,20,5,14,3,0,15,3.75,6,L,0.23120967741935483,0.3202499999999999,0.4392,0.21349999999999997
12,5,10,0,8,23.42399999999998,20,105,118,14,95,112,25.55899999999998,12.19999999999999,11.406999999999991,0.488,20,18,17,2,117,48,52,2,2,0,13,3.25,6,L,0.21845299145299144,0.25416666666666665,0.2193653846153846,0.244
13,1,1,0,2,42.63899999999997,13,159,55,51,60,22,43.858999999999966,0.488,1.463999999999999,2.439999999999998,18,3,7,10,164,4,7,13,4,0.5,30,4.5,5,L,0.2674329268292683,0.122,0.20914285714285713,0.18769230769230769
13,1,2,0,6,29.828999999999976,19,129,1,94,87,4,29.889999999999976,8.051999999999994,5.062999999999996,1.8909999999999987,20,18,15,8,130,37,26,9,6,0,18,4.5,5,L,0.2299230769230769,0.2176216216216216,0.1947307692307692,0.21011111111111108
13,2,3,0,9,17.262999999999987,20,101,61,42,70,66,17.689999999999987,8.661999999999994,2.0129999999999986,2.0129999999999986,20,15,9,8,103,38,10,10,4,0.5,29,4.25,5,L,0.17174757281553396,0.22794736842105262,0.2013,0.2013
13,2,4,0,8,30.926999999999975,17,143,120,113,110,111,31.170999999999975,0.122,0.6099999999999999,2.3179999999999983,18,1,3,7,144,1,3,8,2,1,24,2,5,L,0.21646527777777777,0.122,0.20333333333333334,0.2897499999999999
13,3,5,0,8,40.19899999999997,14,182,118,113,111,2,40.38199999999997,0.427,2.561999999999998,2.439999999999998,16,2,8,7,184,2,12,8,2,0.5,18,3,5,L,0.2194673913043478,0.2135,0.21349999999999997,0.30499999999999994
13,3,6,0,5,54.10699999999996,16,235,39,37,18,96,55.570999999999955,1.0979999999999994,3.1719999999999975,11.162999999999991,20,5,11,15,239,6,17,43,5,0,19,4.75,5,L,0.2325146443514644,0.183,0.18658823529411764,0.2596046511627907
13,4,7,0,4,53.98499999999996,12,211,107,104,102,100,54.594999999999956,0.7319999999999998,1.8299999999999987,2.2569999999999983,15,2,7,8,214,2,8,11,2,1,24,2,5,L,0.2551168224299065,0.366,0.22874999999999995,0.2051818181818182
13,4,8,0,3,16.896999999999988,20,82,27,2,86,114,17.628999999999987,15.859999999999987,8.051999999999994,4.025999999999997,20,17,16,12,86,74,40,20,5,0,16,4,5,L,0.20498837209302323,0.2143243243243243,0.20129999999999998,0.20129999999999998
14,1,1,0,10,24.70499999999998,17,130,96,92,90,3,24.94899999999998,0.244,1.1589999999999994,3.537999999999997,18,1,5,11,131,1,6,21,3,0.5,24,3.75,6,L,0.1904503816793893,0.244,0.19316666666666663,0.16847619047619047
14,1,2,0,1,20.739999999999984,17,93,84,75,80,82,21.837999999999983,1.7689999999999988,1.4029999999999991,2.439999999999998,20,6,6,11,99,6,10,13,3,1,36,3,6,L,0.22058585858585855,0.2948333333333332,0.1403,0.18769230769230769
14,2,3,0,4,22.996999999999982,17,106,103,98,106,102,23.54599999999998,0.122,0.488,0.427,20,2,2,2,111,2,2,2,2,1,24,2,6,L,0.2121261261261261,0.061,0.244,0.2135
14,2,4,0,8,38.36899999999997,20,170,111,60,17,117,41.11399999999997,4.330999999999997,3.720999999999997,0.366,20,12,11,3,182,20,13,3,2,0,14,3.5,6,L,0.22590109890109888,0.21655,0.2862307692307692,0.122
14,3,5,0,4,26.96199999999998,20,138,34,16,99,25,59.84099999999995,0.305,0.061,1.7079999999999989,20,3,1,6,268,3,1,6,2,0,18,4.5,6,L,0.2232873134328358,0.10166666666666667,0.061,0.2846666666666666
14,3,6,0,6,44.529999999999966,15,206,9,5,42,7,44.590999999999966,1.646999999999999,3.781999999999997,1.1589999999999994,16,5,9,7,207,7,13,7,6,0.5,41,5.75,6,L,0.21541545893719805,0.2352857142857143,0.2909230769230769,0.16557142857142856
14,4,7,0,9,28.364999999999977,18,147,13,46,79,14,42.57799999999997,9.027999999999993,5.489999999999996,1.9519999999999986,20,17,16,8,196,42,26,8,4,0,20,5,6,L,0.21723469387755098,0.21495238095238095,0.21115384615384614,0.244
14,4,8,0,2,24.46099999999998,20,104,58,60,51,4,26.71799999999998,0.6099999999999999,0.9759999999999995,10.247999999999992,20,3,4,15,119,3,5,47,4,0.5,30,4.5,6,L,0.22452100840336134,0.20333333333333334,0.19519999999999998,0.21804255319148935
14,5,9,0,1,46.054999999999964,19,208,74,82,81,78,46.725999999999964,2.3789999999999982,0.6709999999999998,2.683999999999998,20,12,3,11,213,12,3,12,3,1,36,3,6,L,0.21937089201877932,0.19824999999999998,0.22366666666666665,0.22366666666666665
14,5,10,0,8,17.994999999999987,19,87,110,111,117,67,27.20599999999998,0.061,1.524999999999999,1.3419999999999992,20,1,6,6,121,1,9,6,2,0.5,16,2.5,6,L,0.22484297520661156,0.061,0.16944444444444445,0.22366666666666665
15,1,1,0,5,24.88799999999998,16,114,5,38,45,43,26.10799999999998,0.122,1.1589999999999994,1.7689999999999988,19,2,4,5,118,2,4,5,5,0.5,36,5.25,6,L,0.22125423728813556,0.061,0.28975,0.3537999999999999
15,1,2,0,2,23.179999999999982,18,111,50,59,60,57,23.85099999999998,0.183,0.305,2.0129999999999986,20,1,1,7,116,1,1,9,4,1,48,4,6,L,0.20561206896551723,0.183,0.305,0.22366666666666665
15,2,3,0,3,28.852999999999977,15,127,15,16,19,52,62.28099999999995,2.2569999999999983,0.061,0.488,20,5,1,3,276,6,1,3,5,0.5,40,5.5,6,L,0.22565579710144926,0.37616666666666654,0.061,0.16266666666666665
15,2,4,0,4,25.07099999999998,20,112,98,10,104,37,27.876999999999978,4.635999999999997,1.8909999999999987,1.0979999999999994,20,13,5,4,128,19,5,4,2,0,15,3.75,6,L,0.2177890625,0.24399999999999997,0.3782,0.2744999999999999
15,3,5,0,6,18.238999999999987,18,96,5,6,8,30,20.068999999999985,0.183,1.8299999999999987,1.4029999999999991,20,2,10,3,104,2,15,4,6,0.5,41,5.75,6,L,0.19297115384615382,0.0915,0.122,0.35074999999999995
15,3,6,0,10,32.63499999999998,18,156,69,98,87,92,55.38799999999996,2.622999999999998,0.427,0.488,20,7,3,3,239,7,3,3,3,0,12,3,6,L,0.23174895397489537,0.37471428571428556,0.14233333333333334,0.16266666666666665
15,4,7,0,8,43.12699999999997,15,198,115,119,71,113,43.37099999999997,0.366,2.9279999999999977,0.7929999999999997,16,4,6,2,199,4,9,2,2,0.5,16,2.5,6,L,0.21794472361809045,0.0915,0.32533333333333325,0.39649999999999985
15,4,8,0,6,14.395999999999988,17,63,6,3,9,10,15.554999999999987,0.305,7.075999999999994,0.183,20,2,11,1,68,2,21,1,6,1,72,6,6,L,0.22874999999999998,0.1525,0.3369523809523809,0.183
15,5,9,0,7,10.979999999999992,15,58,21,15,13,22,11.528999999999991,0.7929999999999997,3.9649999999999967,2.3789999999999982,17,4,10,8,61,4,16,10,6,1,72,6,6,L,0.189,0.19824999999999998,0.24781249999999996,0.23789999999999997
15,5,10,0,6,13.48099999999999,18,71,11,1,10,6,16.28699999999999,2.622999999999998,1.524999999999999,0.5489999999999999,20,9,4,4,83,9,4,4,6,1,72,6,6,L,0.1962289156626506,0.29144444444444445,0.38124999999999987,0.13724999999999998
16,1,1,0,6,33.244999999999976,17,141,6,9,2,81,33.854999999999976,3.4159999999999973,3.2329999999999974,11.77299999999999,19,8,9,16,143,11,15,41,6,0.5,39,5.25,6,L,0.23674825174825173,0.3105454545454545,0.21553333333333333,0.2871463414634146
16,1,2,0,10,28.791999999999977,18,133,96,16,72,44,29.340999999999976,4.452999999999997,2.2569999999999983,6.160999999999995,20,10,9,10,135,15,12,20,3,0,18,4.5,6,L,0.21734074074074072,0.2968666666666666,0.18808333333333332,0.30804999999999993
16,2,3,0,4,24.88799999999998,19,129,97,62,103,107,27.14499999999998,9.332999999999993,0.061,0.122,20,16,1,2,135,50,1,2,2,0.5,16,2.5,6,L,0.20107407407407407,0.18666,0.061,0.061
16,2,4,0,8,15.920999999999987,18,69,118,119,2,6,16.22599999999999,6.282999999999995,18.726999999999986,2.3179999999999983,20,14,17,8,71,26,74,8,2,0,16,4,6,L,0.22853521126760562,0.2416538461538461,0.25306756756756754,0.28974999999999995
16,3,5,0,5,32.02499999999998,13,124,37,42,47,43,33.488999999999976,0.7319999999999998,1.2809999999999993,3.903999999999997,18,3,4,12,130,3,4,16,5,1,60,5,6,L,0.25760769230769226,0.244,0.3202499999999999,0.244
16,3,6,0,8,37.14899999999997,16,184,115,114,119,113,37.63699999999997,0.061,1.7689999999999988,0.183,20,1,5,1,190,1,7,1,2,1,24,2,6,L,0.1980894736842105,0.061,0.2527142857142857,0.183
16,4,7,0,9,20.373999999999985,18,109,71,4,62,12,20.800999999999984,8.295999999999994,0.061,6.953999999999994,20,17,1,15,111,42,1,28,4,0,20,5,6,L,0.18739639639639638,0.19752380952380952,0.061,0.2483571428571428
16,4,8,0,2,37.02699999999997,17,152,55,57,52,51,40.38199999999997,2.1959999999999984,1.463999999999999,0.183,20,9,5,1,165,11,7,1,4,1,48,4,6,L,0.24473939393939392,0.1996363636363636,0.20914285714285713,0.183
16,5,9,0,1,23.72899999999998,20,103,73,69,48,39,24.03399999999998,6.587999999999995,9.027999999999993,2.500999999999998,20,13,13,9,105,28,25,11,3,0,17,4.25,6,L,0.22889523809523807,0.23528571428571426,0.3611199999999999,0.22736363636363635
16,5,10,0,6,21.471999999999984,20,111,7,8,3,4,23.301999999999982,0.305,8.478999999999994,0.061,20,3,16,1,120,3,35,1,6,1,72,6,6,L,0.19418333333333332,0.10166666666666667,0.24225714285714284,0.061
17,1,1,0,5,31.536999999999974,15,145,48,39,38,7,31.780999999999974,1.0369999999999995,5.001999999999996,2.805999999999998,16,4,12,10,146,5,19,15,5,0.5,36,5.25,6,L,0.2176780821917808,0.2074,0.2632631578947368,0.18706666666666663
17,1,2,0,7,30.682999999999975,18,150,13,17,51,16,30.743999999999975,2.561999999999998,1.7079999999999989,11.589999999999991,19,6,5,14,151,10,6,43,6,0.5,40,5.5,6,L,0.2036026490066225,0.2562,0.2846666666666666,0.2695348837209302
17,2,3,0,4,34.037999999999975,14,143,97,102,47,15,35.440999999999974,0.122,7.990999999999993,2.9889999999999977,20,1,16,9,152,1,32,12,2,0,15,3.75,6,L,0.2331644736842105,0.122,0.24971874999999996,0.24908333333333332
17,2,4,0,10,16.28699999999999,15,81,3,88,62,87,34.464999999999975,0.5489999999999999,0.488,0.488,20,3,2,2,149,3,2,3,3,0,16,4,6,L,0.23130872483221473,0.183,0.244,0.16266666666666665
17,3,5,0,3,26.90099999999998,19,131,26,28,36,32,28.486999999999977,2.1349999999999985,0.488,0.183,20,10,3,1,136,12,3,1,5,1,60,5,6,L,0.20946323529411762,0.17791666666666667,0.16266666666666665,0.183
17,3,6,0,9,24.52199999999998,14,121,62,63,44,38,25.61999999999998,2.683999999999998,3.903999999999997,1.2809999999999993,19,9,10,3,126,14,16,3,4,0,18,4.5,6,L,0.2033333333333333,0.1917142857142857,0.24399999999999997,0.42699999999999994
17,4,7,0,10,50.08099999999996,15,198,98,91,87,96,51.23999999999996,0.122,0.183,0.061,18,2,2,1,201,2,2,1,3,0.5,20,2.75,6,L,0.25492537313432834,0.061,0.0915,0.061
17,4,8,0,1,20.251999999999985,20,96,82,76,42,80,21.471999999999984,1.585999999999999,0.7929999999999997,2.561999999999998,20,5,6,10,101,5,6,17,3,0.5,23,3.5,6,L,0.2125940594059406,0.3171999999999999,0.13216666666666665,0.15070588235294116
17,5,9,0,6,16.896999999999988,20,89,4,104,1,3,19.397999999999985,2.9889999999999977,0.366,5.672999999999996,20,5,2,9,102,7,2,17,6,0.5,38,5,6,L,0.19017647058823528,0.4269999999999999,0.183,0.3337058823529411
17,5,10,0,1,28.669999999999977,15,138,76,24,16,84,31.597999999999974,8.051999999999994,1.0369999999999995,1.2809999999999993,20,17,4,5,149,42,4,6,3,0,18,4.5,6,L,0.2120671140939597,0.1917142857142857,0.25925,0.2135
18,1,1,0,9,31.170999999999975,19,143,70,69,62,68,31.841999999999974,1.646999999999999,0.061,0.366,20,8,1,1,146,8,1,1,4,1,48,4,6,L,0.2180958904109589,0.205875,0.061,0.366
18,1,2,0,8,15.066999999999988,17,69,109,113,8,84,15.615999999999987,0.061,7.8689999999999936,7.319999999999994,20,1,17,14,72,1,45,39,2,0,13,3.25,6,L,0.21688888888888888,0.061,0.17486666666666667,0.18769230769230769
18,2,3,0,6,23.72899999999998,19,111,11,33,113,56,30.316999999999975,3.537999999999997,0.366,4.025999999999997,20,10,1,11,142,11,1,17,6,0,17,4.25,6,L,0.2135,0.3216363636363636,0.366,0.2368235294117647
18,2,4,0,9,33.366999999999976,19,146,71,62,24,67,35.440999999999974,0.061,3.0499999999999976,1.463999999999999,20,1,11,5,153,1,17,5,4,0.5,30,4.5,6,L,0.23164052287581696,0.061,0.17941176470588235,0.29279999999999995
18,3,5,0,10,9.515999999999993,14,44,87,40,88,119,10.735999999999992,27.08399999999998,0.061,0.305,19,18,1,2,50,102,1,2,3,0,13,3.25,6,L,0.21472,0.26552941176470585,0.061,0.1525
18,3,6,0,7,29.035999999999976,18,138,16,67,83,72,31.658999999999974,0.366,6.8929999999999945,8.722999999999994,20,2,14,13,147,2,35,36,6,0,17,4.25,6,L,0.2153673469387755,0.183,0.19694285714285714,0.24230555555555552
18,4,7,0,10,13.17599999999999,16,57,86,114,7,91,13.663999999999989,25.25399999999998,0.9149999999999996,0.7319999999999998,18,18,6,4,59,96,6,4,3,0,14,3.5,6,L,0.23159322033898302,0.2630625,0.1525,0.183
18,4,8,0,3,28.730999999999977,18,124,30,35,29,32,29.096999999999976,2.3789999999999982,0.427,3.1109999999999975,20,9,1,12,127,10,1,19,5,1,60,5,6,L,0.2291102362204724,0.23789999999999997,0.427,0.16373684210526315
18,5,9,0,5,10.979999999999992,16,40,38,48,16,14,11.589999999999991,7.075999999999994,1.1589999999999994,7.441999999999994,20,17,2,11,45,33,2,23,5,0,22,5.5,6,L,0.25755555555555554,0.2144242424242424,0.5794999999999998,0.3235652173913043
18,5,10,0,3,23.85099999999998,16,124,28,32,30,103,24.15599999999998,1.646999999999999,1.3419999999999992,9.576999999999993,19,7,5,13,127,9,5,37,5,0.5,32,4.25,6,L,0.1902047244094488,0.183,0.26839999999999997,0.2588378378378378
19,1,1,0,9,51.11799999999996,17,226,70,66,67,5,51.78899999999996,0.244,1.8909999999999987,2.1959999999999984,20,2,8,5,230,2,9,6,4,0.5,30,4.5,6,L,0.2251695652173913,0.122,0.2101111111111111,0.366
19,1,2,0,4,53.43599999999996,16,223,101,37,104,55,58.37699999999995,2.0129999999999986,0.6099999999999999,1.524999999999999,20,7,2,9,243,7,2,10,2,0,13,3.25,6,L,0.24023456790123454,0.28757142857142853,0.305,0.1525
19,2,3,0,1,15.859999999999987,18,82,74,63,32,79,18.604999999999986,8.844999999999994,9.759999999999993,0.9149999999999996,20,13,14,4,91,35,34,5,3,0,15,3.75,6,L,0.20445054945054944,0.2527142857142857,0.2870588235294117,0.183
19,2,4,0,10,30.682999999999975,16,145,91,95,89,46,31.536999999999974,0.183,3.2329999999999974,2.2569999999999983,20,1,8,5,151,1,9,6,3,0.5,23,3.5,6,L,0.20885430463576157,0.183,0.35922222222222217,0.37616666666666654
19,3,5,0,1,35.745999999999974,19,157,80,76,38,77,37.94199999999997,0.244,0.6099999999999999,0.5489999999999999,20,4,1,3,169,4,1,4,3,0.5,23,3.5,6,L,0.22450887573964495,0.061,0.6099999999999999,0.13724999999999998
19,3,6,0,7,11.223999999999991,16,53,21,13,19,22,11.345999999999991,1.2809999999999993,3.0499999999999976,0.183,18,6,10,2,55,6,12,2,6,1,72,6,6,L,0.20629090909090908,0.21349999999999997,0.25416666666666665,0.0915
19,4,7,0,4,36.72199999999997,16,157,85,90,104,97,60.45099999999995,0.061,1.7079999999999989,0.122,20,1,9,2,259,1,9,2,2,0,10,2.5,6,L,0.23340154440154437,0.061,0.18977777777777777,0.061
19,4,8,0,8,18.177999999999987,20,81,116,111,112,73,19.519999999999985,10.308999999999992,0.122,5.855999999999995,20,16,1,14,87,43,1,26,2,0.5,15,2.25,6,L,0.224367816091954,0.2397441860465116,0.122,0.22523076923076923
19,5,9,0,6,21.654999999999983,17,91,5,12,26,2,21.715999999999983,6.526999999999995,3.2329999999999974,0.8539999999999996,18,12,10,4,92,26,12,4,6,0.5,41,5.75,6,L,0.23604347826086955,0.25103846153846154,0.26941666666666664,0.2135
19,5,10,0,2,16.774999999999988,16,79,53,97,51,44,17.140999999999988,5.123999999999996,8.417999999999994,0.244,18,11,13,2,81,20,36,2,4,0,15,3.75,6,L,0.21161728395061727,0.2562,0.2338333333333333,0.122
20,1,1,0,2,27.571999999999978,18,132,60,50,56,55,28.242999999999977,5.7339999999999955,0.9149999999999996,2.2569999999999983,20,13,4,6,134,26,4,8,4,1,48,4,6,L,0.2107686567164179,0.22053846153846152,0.22875,0.28212499999999996
20,1,2,0,9,26.16899999999998,20,116,63,65,61,24,26.59599999999998,0.366,3.0499999999999976,5.611999999999996,20,2,11,11,118,2,16,24,4,0.5,30,4.5,6,L,0.22538983050847455,0.183,0.190625,0.2338333333333333
20,2,3,0,6,18.360999999999986,17,95,2,66,4,64,18.421999999999986,10.308999999999992,8.478999999999994,0.6099999999999999,18,17,13,2,96,44,39,2,6,0,20,5,6,L,0.19189583333333332,0.23429545454545453,0.2174102564102564,0.305
20,2,4,0,7,16.04299999999999,16,75,17,16,13,19,16.530999999999988,4.208999999999997,3.659999999999997,0.6099999999999999,18,12,9,6,77,20,12,6,6,1,72,6,6,L,0.21468831168831168,0.21045,0.305,0.10166666666666667
20,3,5,0,2,33.854999999999976,16,153,55,60,13,95,35.318999999999974,13.05399999999999,5.7949999999999955,0.183,20,19,14,1,161,61,22,1,4,0,17,4.25,6,L,0.2193726708074534,0.214,0.26340909090909087,0.183
20,3,6,0,6,57.76699999999995,13,256,8,7,5,6,58.62099999999995,3.537999999999997,8.478999999999994,1.0369999999999995,18,9,17,3,261,16,42,3,6,1,72,6,6,L,0.2246015325670498,0.221125,0.20188095238095236,0.34566666666666657
20,4,7,0,3,19.885999999999985,20,104,30,35,24,31,20.251999999999985,4.391999999999997,0.6099999999999999,0.9759999999999995,20,11,1,3,107,15,1,3,5,0.5,36,5.25,6,L,0.18927102803738316,0.29279999999999995,0.6099999999999999,0.3253333333333333
20,4,8,0,5,38.42999999999997,20,174,46,45,39,4,39.77199999999997,1.3419999999999992,2.8669999999999978,12.74899999999999,20,5,12,17,181,6,12,62,5,0.5,36,5.25,6,L,0.21973480662983425,0.22366666666666665,0.23891666666666664,0.2056290322580645
20,5,9,0,5,23.78999999999998,11,116,43,44,49,41,23.85099999999998,2.0129999999999986,3.842999999999997,2.744999999999998,12,6,12,10,117,6,17,12,5,0.5,34,4.75,6,L,0.20385470085470084,0.33549999999999996,0.22605882352941173,0.22874999999999998
20,5,10,0,1,66.79500000000027,10,267,84,79,83,25,69.41800000000028,2.439999999999998,0.9149999999999996,2.2569999999999983,19,9,4,12,278,12,4,14,3,0.5,23,3.5,6,L,0.24970503597122298,0.20333333333333334,0.22874999999999995,0.1612142857142857
21,1,1,0,4,42.39499999999997,20,197,108,98,100,72,42.82199999999997,5.245999999999996,0.366,0.122,20,15,2,1,200,29,2,1,2,0.5,16,2.5,6,L,0.21411,0.18089655172413793,0.183,0.122
21,1,2,0,8,27.510999999999978,14,120,112,117,113,57,27.632999999999978,2.0739999999999985,0.244,3.598999999999997,16,7,3,10,122,9,3,14,2,0.5,16,2.5,6,L,0.22649999999999998,0.23044444444444437,0.08133333333333333,0.25707142857142856
21,2,3,0,2,18.116999999999987,10,84,56,57,49,8,19.702999999999985,0.183,0.244,0.6099999999999999,17,3,2,1,92,3,2,1,4,0.5,30,4.5,6,L,0.21416304347826084,0.061,0.122,0.6099999999999999
21,2,4,0,1,60.75599999999995,17,233,81,78,44,61,60.87799999999995,1.2809999999999993,3.9649999999999967,1.3419999999999992,19,7,11,5,235,7,17,6,3,0,15,3.75,6,L,0.25905531914893615,0.183,0.23323529411764704,0.22366666666666665
21,3,5,0,4,24.88799999999998,19,115,97,101,85,100,25.74199999999998,5.489999999999996,4.086999999999997,0.6709999999999998,20,13,11,3,119,25,17,3,2,0.5,15,2.25,6,L,0.21631932773109241,0.2196,0.24041176470588235,0.22366666666666665
21,3,6,0,2,25.31499999999998,14,124,56,20,81,25,27.266999999999978,8.356999999999994,1.8909999999999987,6.709999999999995,19,15,5,14,130,31,6,26,4,0,18,4.5,6,L,0.20974615384615383,0.26958064516129027,0.3151666666666666,0.25807692307692304
21,4,7,0,9,22.813999999999982,19,112,62,105,10,7,23.66799999999998,14.334999999999988,4.6969999999999965,7.380999999999994,20,17,12,13,117,52,18,30,4,0,18,4.5,6,L,0.20229059829059828,0.2756730769230769,0.2609444444444444,0.2460333333333333
21,4,8,0,5,15.981999999999987,16,70,40,48,42,60,23.85099999999998,0.7319999999999998,2.9889999999999977,3.0499999999999976,20,4,9,12,106,4,14,16,5,0.5,34,4.75,6,L,0.22500943396226414,0.183,0.2135,0.190625
21,5,9,0,2,13.907999999999989,11,66,60,54,55,98,14.273999999999988,1.0369999999999995,1.0369999999999995,6.8319999999999945,14,4,3,13,69,5,3,29,4,0.5,26,3.5,6,L,0.20686956521739128,0.20739999999999995,0.34566666666666657,0.23558620689655171
21,5,10,0,8,23.66799999999998,19,115,109,66,119,20,24.39999999999998,13.663999999999989,3.0499999999999976,1.3419999999999992,20,18,11,6,119,53,12,7,2,0,14,3.5,6,L,0.20504201680672268,0.25781132075471697,0.25416666666666665,0.1917142857142857
22,1,1,0,1,24.88799999999998,18,128,80,77,73,49,25.86399999999998,0.5489999999999999,0.7319999999999998,3.537999999999997,20,4,4,9,132,4,4,13,3,0.5,22,3.25,6,L,0.19593939393939394,0.13724999999999998,0.183,0.27215384615384614
22,1,2,0,9,27.327999999999978,19,122,3,4,10,71,51.84999999999996,1.3419999999999992,0.6099999999999999,0.061,20,7,3,1,215,8,3,1,4,0.5,40,5.5,6,L,0.2411627906976744,0.16775,0.20333333333333334,0.061
22,2,3,0,10,34.891999999999975,20,155,85,94,90,17,35.440999999999974,0.6099999999999999,1.0979999999999994,4.147999999999997,20,3,4,12,159,3,5,19,3,0.5,24,3.75,6,L,0.22289937106918237,0.20333333333333334,0.2196,0.2183157894736842
22,2,4,0,1,33.122999999999976,16,139,76,77,82,80,34.342999999999975,2.0739999999999985,1.8909999999999987,0.366,20,6,7,1,146,6,9,1,3,1,36,3,6,L,0.23522602739726026,0.3456666666666667,0.2101111111111111,0.366
22,3,5,0,3,37.51499999999997,12,166,29,32,27,30,37.57599999999997,2.805999999999998,3.3549999999999973,7.746999999999994,13,10,13,15,167,15,20,32,5,1,60,5,6,L,0.22500598802395208,0.18706666666666666,0.16775,0.24209374999999997
22,3,6,0,2,40.99199999999997,17,185,56,50,43,78,43.797999999999966,2.3179999999999983,2.805999999999998,2.1349999999999985,20,7,7,6,198,9,9,9,4,0,16,4,6,L,0.22120202020202018,0.25755555555555554,0.3117777777777777,0.2372222222222222
22,4,7,0,4,29.889999999999976,19,129,100,106,108,99,30.011999999999976,0.488,0.7319999999999998,2.3179999999999983,20,1,3,7,130,1,4,9,2,1,24,2,6,L,0.23086153846153842,0.488,0.183,0.2575555555555555
22,4,8,0,10,30.438999999999975,15,132,52,89,88,57,39.83299999999997,0.7929999999999997,2.1349999999999985,0.305,20,5,6,1,183,5,7,1,3,0,14,3.5,6,L,0.21766666666666665,0.1586,0.30499999999999994,0.305
22,5,9,0,6,54.472999999999956,12,248,8,43,74,10,54.533999999999956,7.014999999999994,2.439999999999998,2.1959999999999984,13,13,11,6,249,28,16,12,6,0,20,5,6,L,0.21901204819277106,0.25053571428571425,0.1525,0.183
22,5,10,0,10,21.288999999999984,18,99,90,91,86,19,21.349999999999984,0.7319999999999998,2.0739999999999985,9.271999999999993,19,3,8,16,100,3,10,37,3,0.5,24,3.75,6,L,0.21349999999999997,0.244,0.2074,0.25059459459459454
23,1,1,0,10,31.109999999999975,19,126,95,94,87,21,31.841999999999974,0.122,1.1589999999999994,2.3789999999999982,20,1,6,3,129,1,7,3,3,0.5,24,3.75,6,L,0.24683720930232556,0.122,0.16557142857142856,0.7929999999999997
23,1,2,0,4,22.752999999999982,19,107,106,99,1,103,24.39999999999998,3.3549999999999973,0.122,0.061,20,14,1,1,113,17,1,1,2,0.5,18,3,6,L,0.215929203539823,0.19735294117647056,0.122,0.061
23,2,3,0,9,27.08399999999998,17,123,65,8,72,6,28.242999999999977,2.561999999999998,4.086999999999997,3.537999999999997,20,6,11,11,131,8,23,18,4,0,20,5,6,L,0.21559541984732822,0.3202499999999999,0.17769565217391303,0.19655555555555554
23,2,4,0,4,18.055999999999987,17,98,97,101,16,22,18.482999999999986,0.061,10.735999999999992,2.683999999999998,18,1,13,11,99,1,49,17,2,0,16,4,6,L,0.1866969696969697,0.061,0.2191020408163265,0.15788235294117647
23,3,5,0,2,14.700999999999988,20,74,55,53,97,102,19.336999999999986,1.524999999999999,12.19999999999999,5.672999999999996,20,6,15,11,98,7,61,22,4,0,12,3,6,L,0.19731632653061223,0.21785714285714286,0.19999999999999998,0.25786363636363635
23,3,6,0,9,23.91199999999998,18,95,72,16,64,35,29.645999999999976,7.136999999999994,0.305,3.842999999999997,20,17,2,13,123,36,2,13,4,0,19,4.75,6,L,0.2410243902439024,0.19824999999999998,0.1525,0.29561538461538456
23,4,7,0,10,50.26399999999996,16,207,92,86,42,10,50.32499999999996,3.2939999999999974,5.977999999999995,3.1109999999999975,17,11,11,11,208,13,17,16,3,0,17,4.25,6,L,0.24194711538461536,0.2533846153846154,0.3516470588235293,0.19443749999999999
23,4,8,0,2,21.410999999999984,19,110,58,24,57,53,26.10799999999998,5.184999999999996,0.122,4.025999999999997,20,13,2,11,131,20,2,16,4,0.5,30,4.5,6,L,0.1992977099236641,0.25925,0.061,0.25162499999999993
23,5,9,0,6,11.528999999999991,15,49,8,2,3,7,12.56599999999999,0.9759999999999995,0.366,0.061,18,6,2,1,53,6,2,1,6,1,72,6,6,L,0.23709433962264148,0.16266666666666665,0.183,0.061
23,5,10,0,7,14.883999999999988,17,68,13,17,22,20,17.628999999999987,0.183,0.122,1.8909999999999987,20,2,1,8,88,2,1,10,6,1,72,6,6,L,0.20032954545454545,0.0915,0.122,0.1891
24,1,1,0,7,9.820999999999993,16,54,15,24,34,19,31.414999999999978,1.8909999999999987,0.366,0.427,20,6,2,4,150,7,2,4,6,0.5,41,5.75,6,L,0.2094333333333333,0.27014285714285713,0.183,0.10675
24,1,2,0,8,38.06399999999997,19,177,117,118,119,111,38.24699999999997,0.305,1.9519999999999986,0.183,20,3,9,1,178,3,10,1,2,1,24,2,6,L,0.2148707865168539,0.10166666666666667,0.19519999999999998,0.183
24,2,3,0,8,10.186999999999992,16,58,16,25,30,35,44.468999999999966,0.7929999999999997,0.183,0.305,20,4,1,2,197,4,1,2,2,0.5,36,5.25,6,L,0.22573096446700505,0.19824999999999998,0.183,0.1525
24,2,4,0,4,28.547999999999977,18,117,102,108,105,43,28.669999999999977,2.1349999999999985,2.683999999999998,6.587999999999995,19,10,9,14,118,12,12,32,2,0.5,17,2.75,6,L,0.24296610169491523,0.17791666666666667,0.22366666666666665,0.205875
24,3,5,0,9,11.101999999999991,11,54,72,68,62,70,11.650999999999991,1.0979999999999994,1.7079999999999989,0.061,14,2,7,1,57,2,7,1,4,1,48,4,6,L,0.2044035087719298,0.5489999999999998,0.244,0.061
24,3,6,0,3,26.35199999999998,18,132,31,32,53,56,31.048999999999975,2.0129999999999986,6.221999999999995,0.366,20,9,12,1,156,11,24,1,5,0,18,4.5,6,L,0.19903205128205126,0.18299999999999997,0.25925,0.366
24,4,7,0,3,54.22899999999996,16,236,1,6,30,7,55.631999999999955,11.406999999999991,0.366,0.7929999999999997,20,17,4,6,244,48,4,8,5,0.5,41,5.75,6,L,0.22799999999999998,0.2376458333333333,0.0915,0.09912499999999999
24,4,8,0,7,19.885999999999985,20,91,70,64,14,72,33.793999999999976,1.7079999999999989,0.488,2.1349999999999985,20,4,5,6,144,7,5,6,6,0.5,30,4.5,6,L,0.23468055555555553,0.24399999999999997,0.09759999999999999,0.3558333333333332
24,5,9,0,10,31.780999999999974,13,137,93,8,6,94,39.16199999999997,1.585999999999999,10.979999999999992,0.9149999999999996,20,6,17,6,172,8,50,7,3,0,18,4.5,6,L,0.22768604651162788,0.19824999999999998,0.2196,0.1307142857142857
24,5,10,0,1,49.40999999999996,14,194,78,73,83,84,50.08099999999996,0.488,0.427,1.4029999999999991,16,2,2,5,196,2,2,5,3,1,36,3,6,L,0.25551530612244894,0.244,0.2135,0.28059999999999996
25,1,1,0,7,33.305999999999976,17,146,17,22,65,96,34.647999999999975,0.5489999999999999,6.160999999999995,6.160999999999995,20,2,14,15,152,2,22,22,6,0,19,4.75,5,L,0.2279473684210526,0.27449999999999997,0.28004545454545454,0.28004545454545454
25,1,2,0,4,29.523999999999976,18,138,97,56,8,73,30.621999999999975,6.8319999999999945,0.488,1.524999999999999,20,12,3,2,143,27,3,2,2,0,15,3.75,5,L,0.21413986013986014,0.253037037037037,0.16266666666666665,0.7624999999999997
25,2,3,0,8,49.22699999999996,13,200,13,73,70,71,84.85099999999994,0.061,0.061,0.122,20,1,1,1,346,1,1,1,2,0,17,4.25,5,L,0.24523410404624274,0.061,0.061,0.122
25,2,4,0,6,22.386999999999983,19,108,4,12,3,11,22.447999999999983,3.598999999999997,0.7319999999999998,0.9149999999999996,20,10,4,3,109,15,4,3,6,1,72,6,5,L,0.20594495412844036,0.23993333333333333,0.183,0.305
25,3,5,0,6,18.360999999999986,20,97,11,3,7,40,19.580999999999985,5.306999999999996,3.3549999999999973,1.2809999999999993,20,13,8,4,99,21,10,4,6,0.5,41,5.75,5,L,0.19778787878787876,0.2527142857142857,0.3354999999999999,0.3202499999999999
25,3,6,0,2,18.726999999999986,20,84,14,19,52,24,42.15099999999997,2.500999999999998,0.305,0.244,20,9,3,2,196,9,3,2,4,0.5,40,5.5,5,L,0.21505612244897956,0.27788888888888885,0.10166666666666667,0.122
25,4,7,0,1,56.729999999999954,16,233,27,30,81,65,72.89499999999994,0.6099999999999999,0.8539999999999996,0.244,20,3,4,3,295,3,4,3,3,0,17,4.25,5,L,0.24710169491525422,0.20333333333333334,0.2135,0.08133333333333333
25,4,8,0,5,13.23699999999999,19,67,44,39,40,45,13.35899999999999,0.122,3.2939999999999974,0.061,20,1,10,1,68,1,15,1,5,1,60,5,5,L,0.19645588235294117,0.122,0.2196,0.061
26,1,1,0,4,17.628999999999987,19,87,102,107,92,88,20.312999999999985,0.122,9.942999999999993,1.3419999999999992,20,2,14,5,99,2,45,6,2,0,10,2.5,5,L,0.20518181818181816,0.061,0.22095555555555554,0.22366666666666665
26,1,2,0,9,43.12699999999997,18,179,61,67,6,84,44.590999999999966,0.7929999999999997,3.9649999999999967,2.9279999999999977,20,6,9,9,184,6,11,11,4,0,17,4.25,5,L,0.2423423913043478,0.13216666666666665,0.3604545454545454,0.26618181818181813
26,2,3,0,5,69.6620000000006,18,282,46,42,90,8,70.1500000000006,3.659999999999997,2.0739999999999985,0.5489999999999999,20,11,9,3,284,17,11,3,5,0,19,4.75,5,L,0.2470070422535211,0.2152941176470588,0.18854545454545454,0.183
26,2,4,0,1,23.66799999999998,20,119,77,81,74,75,26.53499999999998,1.0979999999999994,1.0979999999999994,1.585999999999999,20,4,4,3,129,4,4,3,3,1,36,3,5,L,0.20569767441860465,0.27449999999999997,0.27449999999999997,0.5286666666666666
26,3,5,0,8,83.63100000000222,13,351,111,81,28,78,83.93600000000222,0.7929999999999997,1.9519999999999986,1.7689999999999988,15,2,4,8,353,2,6,13,2,0,13,3.25,5,L,0.23777903682719545,0.39649999999999996,0.32533333333333325,0.13607692307692307
26,3,6,0,4,17.994999999999987,19,78,100,107,44,103,18.055999999999987,1.0369999999999995,1.2199999999999993,1.7079999999999989,20,5,1,9,79,5,1,14,2,0.5,17,2.75,5,L,0.22855696202531645,0.2074,1.2199999999999993,0.122
26,4,7,0,1,35.867999999999974,15,163,76,80,82,27,38.85699999999997,2.3179999999999983,0.6099999999999999,3.1719999999999975,20,6,4,11,176,6,4,13,3,0.5,23,3.5,5,L,0.22077840909090907,0.38633333333333325,0.1525,0.244
26,4,8,0,10,18.360999999999986,20,83,96,90,87,86,18.787999999999986,1.2199999999999993,1.1589999999999994,4.7579999999999965,20,5,3,14,86,5,3,26,3,1,36,3,5,L,0.21846511627906975,0.24399999999999997,0.3863333333333332,0.183
27,1,1,0,5,30.865999999999975,20,152,44,43,39,61,30.926999999999975,0.183,2.683999999999998,2.8669999999999978,20,2,7,5,153,2,10,7,5,0.5,34,4.75,6,L,0.20213725490196077,0.0915,0.26839999999999997,0.4095714285714285
27,1,2,0,4,43.858999999999966,18,196,107,99,98,58,45.810999999999964,0.5489999999999999,0.244,2.3789999999999982,20,2,1,9,207,2,1,10,2,0.5,16,2.5,6,L,0.22130917874396133,0.27449999999999997,0.244,0.23789999999999997
27,2,3,0,1,39.40599999999997,18,186,78,79,26,27,40.38199999999997,0.244,8.966999999999993,0.366,20,2,14,3,189,2,39,3,3,0,16,4,6,L,0.21366137566137564,0.122,0.2299230769230769,0.122
27,2,4,0,9,12.50499999999999,14,64,66,70,71,61,12.80999999999999,2.9279999999999977,0.061,0.7319999999999998,17,9,1,4,67,13,1,5,4,1,48,4,6,L,0.19119402985074627,0.22523076923076923,0.061,0.1464
27,3,5,0,5,33.671999999999976,16,144,19,39,37,23,41.72399999999997,0.061,0.5489999999999999,11.101999999999991,20,1,4,16,169,1,4,47,5,0,22,5.5,6,L,0.246887573964497,0.061,0.13724999999999998,0.23621276595744678
27,3,6,0,9,11.406999999999991,14,48,61,62,63,26,11.77299999999999,0.8539999999999996,1.463999999999999,6.770999999999995,17,2,7,16,51,2,7,34,4,0.5,29,4.25,6,L,0.23084313725490194,0.4269999999999998,0.20914285714285713,0.1991470588235294
27,4,7,0,4,36.59999999999997,19,145,107,102,100,46,37.33199999999997,0.122,1.585999999999999,4.7579999999999965,20,1,7,7,147,1,7,13,2,0.5,17,2.75,6,L,0.25395918367346937,0.122,0.22657142857142856,0.36599999999999994
27,4,8,0,10,48.00699999999996,17,231,15,92,29,93,60.99999999999995,0.183,0.061,0.6709999999999998,20,2,1,4,293,2,1,4,3,0,17,4.25,6,L,0.20819112627986347,0.0915,0.061,0.16775
27,5,9,0,4,12.80999999999999,14,60,98,23,100,99,14.090999999999989,20.861999999999984,1.0369999999999995,5.062999999999996,20,19,8,11,67,93,9,24,2,0.5,18,3,6,L,0.21031343283582088,0.22432258064516125,0.11522222222222223,0.2109583333333333
27,5,10,0,5,22.996999999999982,19,99,42,45,46,38,23.48499999999998,0.5489999999999999,0.8539999999999996,6.160999999999995,20,2,3,14,104,2,4,28,5,1,60,5,6,L,0.22581730769230768,0.27449999999999997,0.2135,0.22003571428571425
28,1,1,0,8,29.828999999999976,17,124,114,119,109,117,30.682999999999975,1.1589999999999994,0.488,2.1959999999999984,20,4,5,7,130,5,6,7,2,1,24,2,6,L,0.2360230769230769,0.23179999999999995,0.08133333333333333,0.3137142857142856
28,1,2,0,7,26.77899999999998,20,114,14,17,21,39,28.608999999999977,0.8539999999999996,0.366,11.467999999999991,20,7,1,17,127,7,2,46,6,0.5,41,5.75,6,L,0.22526771653543304,0.122,0.183,0.24930434782608693
28,2,3,0,7,18.787999999999986,19,96,17,21,23,72,18.970999999999986,3.2939999999999974,0.7929999999999997,9.759999999999993,20,10,5,15,98,13,5,40,6,0.5,40,5.5,6,L,0.19358163265306122,0.2533846153846153,0.1586,0.24399999999999997
28,2,4,0,6,14.822999999999988,16,64,6,7,12,52,14.883999999999988,8.112999999999994,6.038999999999995,0.7319999999999998,17,14,12,4,65,37,26,4,6,0.5,40,5.5,6,L,0.22898461538461534,0.21927027027027024,0.23226923076923076,0.183
28,3,5,0,10,26.22999999999998,13,109,93,89,86,85,27.815999999999978,1.2199999999999993,0.9759999999999995,4.6969999999999965,18,4,3,14,114,5,3,24,3,1,36,3,6,L,0.24399999999999997,0.244,0.3253333333333333,0.19570833333333332
28,3,6,0,3,19.153999999999986,20,101,30,67,62,31,19.885999999999985,5.916999999999995,6.526999999999995,3.1719999999999975,20,15,13,12,105,27,28,18,5,0,18,4.5,6,L,0.1893904761904762,0.21914814814814812,0.23310714285714285,0.17622222222222222
28,4,7,0,4,38.18599999999997,18,181,97,16,104,101,38.55199999999997,9.271999999999993,1.524999999999999,1.2199999999999993,20,15,6,6,183,33,9,6,2,0.5,18,3,6,L,0.21066666666666664,0.2809696969696969,0.16944444444444445,0.20333333333333334
28,4,8,0,9,31.597999999999974,16,166,66,65,4,71,32.51299999999998,2.561999999999998,18.909999999999986,1.2809999999999993,19,10,18,7,170,12,75,9,4,0.5,30,4.5,6,L,0.19125294117647057,0.2135,0.2521333333333333,0.14233333333333334
28,5,9,0,10,23.179999999999982,18,111,90,95,94,7,24.09499999999998,1.0979999999999994,7.014999999999994,2.805999999999998,20,4,14,9,114,4,36,15,3,0.5,24,3.75,6,L,0.211359649122807,0.27449999999999997,0.1948611111111111,0.18706666666666666
28,5,10,0,7,40.07699999999997,13,172,23,16,15,37,40.93099999999997,2.683999999999998,1.8299999999999987,4.7579999999999965,17,10,5,13,176,13,5,21,6,0.5,41,5.75,6,L,0.23256249999999998,0.20646153846153845,0.3659999999999999,0.22657142857142856
29,1,1,0,2,22.325999999999983,19,105,50,56,49,40,24.27799999999998,1.4029999999999991,2.9889999999999977,0.9149999999999996,20,5,11,4,115,7,14,4,4,0.5,29,4.25,6,L,0.21111304347826085,0.20042857142857137,0.21349999999999997,0.22875
29,1,2,0,7,19.885999999999985,13,93,16,17,21,27,20.617999999999984,2.8669999999999978,0.122,4.269999999999997,16,8,1,14,96,9,1,22,6,0.5,41,5.75,6,L,0.21477083333333333,0.3185555555555555,0.122,0.1940909090909091
29,2,3,0,1,25.80299999999998,19,115,79,82,77,78,29.523999999999976,1.2809999999999993,0.183,1.9519999999999986,20,7,1,6,124,7,1,7,3,1,36,3,6,L,0.23809677419354836,0.183,0.183,0.2788571428571428
29,2,4,0,10,31.719999999999974,17,151,89,40,96,95,32.81799999999998,1.0369999999999995,0.427,7.014999999999994,20,3,2,9,158,4,2,29,3,0.5,23,3.5,6,L,0.20770886075949366,0.2592499999999999,0.2135,0.2418965517241379
29,3,5,0,3,20.190999999999985,14,110,32,25,9,69,20.861999999999984,2.500999999999998,5.184999999999996,1.8299999999999987,20,7,14,8,116,9,24,10,5,0,20,5,6,L,0.1798448275862069,0.27788888888888885,0.21604166666666666,0.183
29,3,6,0,7,14.700999999999988,19,68,14,54,103,22,14.761999999999988,10.125999999999992,1.4029999999999991,12.80999999999999,20,16,8,15,69,37,10,55,6,0,18,4.5,6,L,0.21394202898550724,0.27367567567567563,0.1403,0.2329090909090909
29,4,7,0,9,27.14499999999998,18,145,72,14,45,15,27.632999999999978,22.264999999999983,4.086999999999997,2.3789999999999982,20,19,12,6,148,92,22,6,4,0,21,5.25,6,L,0.18670945945945944,0.24201086956521736,0.18577272727272726,0.3964999999999999
29,4,8,0,2,19.397999999999985,14,84,57,49,54,2,20.617999999999984,0.7319999999999998,2.2569999999999983,12.01699999999999,18,2,4,15,88,3,5,52,4,0.5,30,4.5,6,L,0.23429545454545453,0.244,0.4513999999999999,0.2310961538461538
29,5,9,0,10,42.08999999999997,17,181,95,96,90,40,42.45599999999997,0.7929999999999997,1.2809999999999993,1.463999999999999,20,4,5,8,184,4,6,9,3,0.5,23,3.5,6,L,0.23073913043478259,0.19824999999999998,0.2135,0.16266666666666665
29,5,10,0,3,16.469999999999988,20,87,27,4,100,2,19.885999999999985,8.905999999999993,2.1349999999999985,3.842999999999997,20,14,5,11,101,29,5,20,5,0,19,4.75,6,L,0.19689108910891087,0.307103448275862,0.4269999999999999,0.19215
30,1,1,0,4,41.78499999999997,17,198,106,103,98,18,41.96799999999997,0.7929999999999997,5.184999999999996,2.2569999999999983,19,5,15,10,200,6,22,11,2,0.5,18,3,5,L,0.20984,0.13216666666666665,0.23568181818181816,0.2051818181818182
30,1,2,0,5,34.769999999999975,20,154,40,43,12,54,41.78499999999997,1.3419999999999992,2.3179999999999983,1.2199999999999993,20,5,8,4,192,5,10,5,5,0,20,5,5,L,0.21763020833333332,0.26839999999999997,0.23179999999999998,0.244
30,2,3,0,4,23.362999999999982,19,116,105,104,97,21,23.66799999999998,0.366,5.7339999999999955,0.427,20,3,12,1,118,3,24,1,2,0.5,18,3,5,L,0.20057627118644067,0.122,0.23891666666666667,0.427
30,2,4,0,9,35.440999999999974,17,149,64,65,67,36,36.41699999999997,1.2809999999999993,2.0129999999999986,6.770999999999995,20,2,6,10,155,2,6,19,4,0.5,29,4.25,5,L,0.23494838709677415,0.6404999999999998,0.3354999999999999,0.3563684210526315
30,3,5,0,5,17.079999999999988,18,86,38,39,41,37,19.885999999999985,0.427,1.4029999999999991,2.805999999999998,20,2,5,11,97,2,5,15,5,1,60,5,5,L,0.2050103092783505,0.2135,0.28059999999999996,0.18706666666666663
30,3,6,0,6,15.432999999999987,14,83,1,57,10,12,15.493999999999987,10.064999999999992,3.2329999999999974,2.0129999999999986,15,16,11,8,84,43,16,9,6,0.5,40,5.5,5,L,0.18445238095238095,0.23406976744186045,0.20206249999999998,0.22366666666666665
30,4,7,0,3,60.57299999999995,15,268,35,34,28,19,61.67099999999995,4.452999999999997,0.5489999999999999,8.722999999999994,20,14,2,14,275,21,3,43,5,0.5,36,5.25,5,L,0.2242581818181818,0.21204761904761904,0.183,0.20286046511627906
30,4,8,0,10,66.24600000000021,12,269,46,86,92,95,71.55300000000021,0.122,0.305,0.122,20,1,2,1,289,1,2,1,3,0.5,23,3.5,5,L,0.2475882352941176,0.122,0.1525,0.122
31,1,1,0,3,22.691999999999982,19,115,35,31,23,53,25.37599999999998,6.099999999999995,0.183,5.489999999999996,20,14,2,14,124,30,2,29,5,0,20,5,6,L,0.20464516129032256,0.2033333333333333,0.0915,0.18931034482758619
31,1,2,0,9,38.30799999999997,17,142,63,48,65,69,38.73499999999997,6.8319999999999945,0.9149999999999996,0.6709999999999998,19,15,3,3,144,31,4,3,4,0.5,29,4.25,6,L,0.2689930555555555,0.22038709677419352,0.22875,0.22366666666666665
31,2,3,0,3,15.798999999999987,18,85,29,32,21,25,16.34799999999999,0.061,8.844999999999994,13.11499999999999,20,1,15,17,90,1,41,55,5,0.5,36,5.25,6,L,0.18164444444444444,0.061,0.21573170731707317,0.23845454545454542
31,2,4,0,6,33.183999999999976,14,147,2,10,8,46,34.525999999999975,0.183,1.4029999999999991,0.122,18,2,6,1,152,2,6,1,6,0.5,41,5.75,6,L,0.22714473684210523,0.0915,0.23383333333333334,0.122
31,3,5,0,6,27.449999999999978,17,132,3,11,54,50,37.88099999999997,1.2809999999999993,0.305,0.6099999999999999,20,4,1,1,182,4,1,1,6,0,20,5,6,L,0.20813736263736263,0.3202499999999999,0.305,0.6099999999999999
31,3,6,0,7,28.120999999999977,16,123,20,30,120,28,30.194999999999975,1.4029999999999991,2.9889999999999977,7.380999999999994,20,6,6,15,135,7,7,34,6,0,18,4.5,6,L,0.22366666666666665,0.20042857142857143,0.4269999999999998,0.21708823529411764
31,4,7,0,1,51.17899999999996,15,225,76,82,58,83,51.72799999999996,4.635999999999997,1.0979999999999994,1.8909999999999987,18,9,4,8,228,16,5,11,3,0.5,22,3.25,6,L,0.22687719298245612,0.28974999999999995,0.2196,0.1719090909090909
31,4,8,0,10,36.17299999999997,16,152,88,91,1,87,36.23399999999997,0.061,4.330999999999997,1.463999999999999,17,1,12,5,153,1,20,5,3,0.5,24,3.75,6,L,0.23682352941176468,0.061,0.21655,0.29279999999999995
31,5,9,0,9,30.072999999999976,15,142,66,71,65,112,33.366999999999976,0.305,0.183,7.197999999999994,20,2,2,12,156,2,2,32,4,0.5,26,3.5,6,L,0.21389102564102563,0.1525,0.0915,0.22493749999999998
31,5,10,0,1,29.950999999999976,20,133,81,73,80,78,30.133999999999975,0.488,1.9519999999999986,6.770999999999995,20,3,6,14,135,3,7,31,3,1,36,3,6,L,0.22321481481481478,0.16266666666666665,0.2788571428571428,0.21841935483870964
32,1,1,0,4,24.03399999999998,20,119,101,107,97,104,24.15599999999998,0.9759999999999995,0.9149999999999996,4.086999999999997,20,5,5,13,120,5,5,23,2,1,24,2,6,L,0.20129999999999998,0.19519999999999998,0.183,0.17769565217391303
32,1,2,0,10,27.266999999999978,14,122,91,85,95,40,27.998999999999977,1.4029999999999991,0.9759999999999995,3.4159999999999973,18,7,4,10,127,7,5,14,3,0.5,23,3.5,6,L,0.22046456692913383,0.2004285714285714,0.19519999999999998,0.24399999999999997
32,2,3,0,7,34.830999999999975,17,154,15,19,30,85,34.891999999999975,6.160999999999995,0.305,7.990999999999993,18,16,3,13,155,26,3,35,6,0,20,5,6,L,0.2251096774193548,0.23696153846153845,0.10166666666666667,0.2283142857142857
32,2,4,0,2,14.334999999999988,17,58,49,55,1,81,15.127999999999988,14.578999999999988,0.6709999999999998,10.796999999999992,20,17,3,17,63,69,3,41,4,0,17,4.25,6,L,0.2401269841269841,0.21128985507246376,0.22366666666666665,0.2633414634146341
32,3,5,0,6,30.560999999999975,20,131,12,2,5,11,32.45199999999998,4.147999999999997,0.5489999999999999,0.427,20,12,4,4,142,20,4,4,6,1,72,6,6,L,0.22853521126760562,0.20739999999999997,0.13724999999999998,0.10675
32,3,6,0,4,42.51699999999997,17,175,13,104,108,52,51.84999999999996,0.8539999999999996,0.122,1.8299999999999987,20,5,2,8,223,6,2,8,2,0,14,3.5,6,L,0.2325112107623318,0.14233333333333334,0.061,0.22875
32,4,7,0,8,22.264999999999983,19,115,114,109,119,115,22.630999999999982,3.0499999999999976,0.244,2.3789999999999982,20,7,3,9,118,10,3,11,2,1,24,2,6,L,0.19178813559322033,0.30499999999999994,0.08133333333333333,0.21627272727272726
32,4,8,0,3,26.41299999999998,19,135,30,26,67,72,26.71799999999998,6.587999999999995,5.489999999999996,1.463999999999999,20,16,12,4,137,38,16,5,5,0,18,4.5,6,L,0.19502189781021897,0.17336842105263156,0.34312499999999996,0.2928
32,5,9,0,5,10.064999999999992,16,40,47,82,77,71,16.16499999999999,12.01699999999999,5.245999999999996,1.2199999999999993,20,17,16,7,68,45,25,7,5,0,15,3.75,6,L,0.2377205882352941,0.26704444444444436,0.20983999999999997,0.17428571428571427
32,5,10,0,2,11.71199999999999,17,60,59,92,104,3,16.774999999999988,18.848999999999986,11.101999999999991,3.3549999999999973,20,18,14,14,82,70,35,16,4,0,15,3.75,6,L,0.2045731707317073,0.26927142857142855,0.3171999999999999,0.2096875
33,1,1,0,10,32.81799999999998,18,152,91,90,9,6,36.72199999999997,0.061,1.2199999999999993,8.722999999999994,20,1,4,16,170,1,4,37,3,0,18,4.5,6,L,0.21601176470588235,0.061,0.305,0.23575675675675672
33,1,2,0,8,27.266999999999978,16,123,117,116,109,67,27.998999999999977,0.183,2.2569999999999983,1.9519999999999986,20,2,9,2,129,2,13,2,2,0.5,16,2.5,6,L,0.21704651162790695,0.0915,0.17361538461538462,0.9759999999999994
33,2,3,0,5,36.17299999999997,11,148,41,38,47,45,36.90499999999997,1.3419999999999992,1.3419999999999992,0.488,15,5,4,3,152,5,7,4,5,1,60,5,6,L,0.2427960526315789,0.26839999999999997,0.1917142857142857,0.122
33,2,4,0,2,23.240999999999982,19,95,51,57,58,54,25.37599999999998,2.0739999999999985,0.122,0.6099999999999999,20,9,1,3,99,11,1,3,4,1,48,4,6,L,0.2563232323232323,0.18854545454545454,0.122,0.20333333333333334
33,3,5,0,10,25.49799999999998,15,145,16,19,88,27,51.91099999999996,0.183,0.305,0.427,20,2,4,1,245,2,4,1,3,0,20,5,6,L,0.2118816326530612,0.0915,0.07625,0.427
33,3,6,0,8,30.560999999999975,14,133,118,112,114,111,30.804999999999975,1.1589999999999994,1.1589999999999994,2.561999999999998,15,5,5,9,134,6,7,9,2,1,24,2,6,L,0.2298880597014925,0.19316666666666665,0.16557142857142856,0.2846666666666666
33,4,7,0,4,48.86099999999996,12,213,104,107,105,1,50.20299999999996,0.183,2.9889999999999977,6.099999999999995,17,2,8,11,218,2,11,19,2,0.5,18,3,6,L,0.23028899082568804,0.0915,0.2717272727272727,0.32105263157894726
33,4,8,0,8,28.852999999999977,18,120,110,49,24,15,29.584999999999976,1.524999999999999,11.589999999999991,5.062999999999996,20,3,16,15,124,4,46,24,2,0,18,4.5,6,L,0.23858870967741933,0.38125,0.2519565217391304,0.2109583333333333
33,5,9,0,5,68.50300000000047,15,304,43,46,51,45,69.66200000000048,0.7319999999999998,2.3789999999999982,3.842999999999997,18,3,8,9,307,3,10,14,5,0.5,34,4.75,6,L,0.2269120521172638,0.244,0.2379,0.27449999999999997
33,5,10,0,9,21.227999999999984,19,101,32,68,65,66,39.95499999999997,1.8299999999999987,0.6709999999999998,0.244,20,5,4,3,188,6,4,3,4,0.5,29,4.25,6,L,0.21252659574468083,0.30499999999999994,0.16775,0.08133333333333333
34,1,1,0,4,30.011999999999976,15,126,103,55,107,20,30.987999999999975,3.476999999999997,0.061,3.659999999999997,18,8,1,9,129,10,1,12,2,0,14,3.5,6,L,0.24021705426356585,0.3476999999999999,0.061,0.30499999999999994
34,1,2,0,8,11.89499999999999,17,56,119,111,120,37,13.05399999999999,4.879999999999996,0.9149999999999996,3.2939999999999974,20,12,3,11,61,19,4,12,2,0.5,17,2.75,6,L,0.21399999999999997,0.2568421052631578,0.22874999999999995,0.27449999999999997
34,2,3,0,7,17.994999999999987,18,91,14,23,15,17,18.055999999999987,4.635999999999997,1.2199999999999993,1.7079999999999989,19,8,4,8,92,16,5,9,6,1,72,6,6,L,0.19626086956521738,0.28974999999999995,0.24399999999999997,0.18977777777777777
34,2,4,0,8,26.71799999999998,19,126,110,117,114,111,27.266999999999978,2.0129999999999986,0.6709999999999998,0.183,20,10,3,2,130,11,3,3,2,1,24,2,6,L,0.20974615384615383,0.183,0.22366666666666665,0.061
34,3,5,0,6,13.35899999999999,16,72,1,10,8,7,13.602999999999989,0.061,1.0979999999999994,2.1349999999999985,18,1,4,6,74,1,4,7,6,1,72,6,6,L,0.18382432432432433,0.061,0.27449999999999997,0.30499999999999994
34,3,6,0,7,22.447999999999983,18,106,17,58,55,43,22.508999999999983,8.844999999999994,1.8299999999999987,0.183,19,12,6,1,107,29,9,1,6,0,19,4.75,6,L,0.21036448598130839,0.30499999999999994,0.20333333333333334,0.183
34,4,7,0,1,49.04399999999996,12,213,78,24,80,77,49.89799999999996,3.3549999999999973,0.244,1.4029999999999991,18,8,2,5,219,12,2,5,3,0.5,24,3.75,6,L,0.22784474885844747,0.2795833333333333,0.122,0.2805999999999999
34,4,8,0,9,45.993999999999964,16,194,31,65,64,63,61.30499999999995,0.9759999999999995,2.744999999999998,1.7079999999999989,20,6,9,8,256,6,13,8,4,0.5,29,4.25,6,L,0.23947265624999997,0.16266666666666665,0.21115384615384614,0.21349999999999997
34,5,9,0,10,56.851999999999954,11,226,94,87,38,6,58.49899999999995,4.635999999999997,5.001999999999996,32.63499999999998,16,13,10,16,232,18,16,141,3,0,17,4.25,6,L,0.2521508620689655,0.25755555555555554,0.31262499999999993,0.23145390070921984
34,5,10,0,3,28.974999999999977,19,129,31,25,24,35,29.218999999999976,0.183,3.537999999999997,0.6099999999999999,20,2,9,3,130,2,11,3,5,0.5,36,5.25,6,L,0.22476153846153843,0.0915,0.3216363636363636,0.20333333333333334
35,1,1,0,1,15.981999999999987,17,76,82,83,79,76,17.384999999999987,0.244,3.476999999999997,1.7689999999999988,20,2,7,6,86,2,10,6,3,1,36,3,5,L,0.20215116279069767,0.122,0.34769999999999995,0.29483333333333334
35,1,2,0,8,41.05299999999997,16,187,109,112,110,37,43.61499999999997,0.061,0.366,1.463999999999999,20,1,2,4,194,1,2,5,2,0.5,17,2.75,5,L,0.22481958762886595,0.061,0.183,0.2928
35,2,3,0,7,15.432999999999987,20,79,13,14,15,22,15.859999999999987,0.6099999999999999,1.1589999999999994,2.1349999999999985,20,3,6,7,81,3,6,9,6,1,72,6,5,L,0.19580246913580246,0.20333333333333334,0.19316666666666665,0.23722222222222222
35,2,4,0,10,27.266999999999978,18,138,87,7,49,11,27.693999999999978,21.837999999999983,1.0369999999999995,0.7929999999999997,19,19,3,5,139,102,3,5,3,0,19,4.75,5,L,0.19923741007194243,0.21409803921568626,0.34566666666666657,0.1586
35,3,5,0,1,51.05699999999996,14,219,80,84,82,55,52.15499999999996,0.8539999999999996,0.427,6.404999999999995,18,5,2,14,223,5,2,29,3,0.5,22,3.25,5,L,0.23387892376681613,0.17079999999999998,0.2135,0.22086206896551724
35,3,6,0,5,26.71799999999998,17,116,13,65,47,20,45.261999999999965,0.366,0.183,0.183,20,2,2,2,201,2,2,2,5,0,21,5.25,5,L,0.22518407960199002,0.183,0.0915,0.0915
35,4,7,0,3,36.05099999999997,14,173,26,115,11,27,37.57599999999997,2.9279999999999977,2.1959999999999984,1.7689999999999988,20,8,9,7,181,11,11,8,5,0,18,4.5,5,L,0.20760220994475137,0.26618181818181813,0.19963636363636364,0.221125
35,4,8,0,4,107.05500000000492,13,427,58,37,103,41,107.60400000000493,0.488,0.7319999999999998,0.305,15,5,5,1,429,6,6,1,2,0,16,4,5,L,0.2508251748251748,0.08133333333333333,0.122,0.305
36,1,1,0,9,39.28399999999997,20,150,71,68,67,11,43.30999999999997,2.3179999999999983,1.7079999999999989,0.061,20,8,7,1,168,9,8,1,4,0.5,30,4.5,6,L,0.257797619047619,0.25755555555555554,0.21349999999999997,0.061
36,1,2,0,1,30.011999999999976,19,138,81,78,83,29,30.316999999999975,1.7079999999999989,2.9279999999999977,0.061,20,4,7,1,139,4,10,1,3,0.5,23,3.5,6,L,0.21810791366906473,0.42699999999999994,0.2928,0.061
36,2,3,0,6,18.421999999999986,18,78,4,12,7,11,22.203999999999983,1.585999999999999,2.683999999999998,3.720999999999997,20,7,8,9,89,11,9,17,6,1,72,6,6,L,0.2494831460674157,0.1441818181818182,0.2982222222222221,0.21888235294117647
36,2,4,0,5,15.249999999999988,14,59,48,37,107,14,15.432999999999987,0.9149999999999996,3.720999999999997,2.683999999999998,16,6,10,5,61,7,14,6,5,0,18,4.5,6,L,0.25299999999999995,0.1307142857142857,0.26578571428571424,0.44733333333333325
36,3,5,0,7,34.037999999999975,16,140,15,16,19,108,34.464999999999975,0.061,0.7319999999999998,6.648999999999995,18,1,2,15,142,1,2,30,6,0.5,38,5,6,L,0.24271126760563377,0.061,0.3659999999999999,0.2216333333333333
36,3,6,0,6,13.602999999999989,12,56,10,12,44,42,13.663999999999989,8.051999999999994,4.147999999999997,8.234999999999994,13,15,12,13,57,30,16,32,6,0,22,5.5,6,L,0.23971929824561403,0.26839999999999997,0.25925,0.25734375
36,4,7,0,9,30.133999999999975,19,136,63,64,62,72,34.952999999999975,1.2199999999999993,0.427,0.9759999999999995,20,5,2,4,156,5,2,5,4,1,48,4,6,L,0.2240576923076923,0.244,0.2135,0.19519999999999998
36,4,8,0,7,19.702999999999985,12,97,22,17,51,82,21.654999999999983,1.2809999999999993,5.855999999999995,7.807999999999994,20,6,13,13,108,10,22,32,6,0,19,4.75,6,L,0.20050925925925925,0.1281,0.2661818181818182,0.24399999999999997
36,5,9,0,2,31.780999999999974,14,127,53,59,58,54,31.902999999999974,0.6709999999999998,0.9149999999999996,0.244,16,2,6,2,129,2,7,2,4,1,48,4,6,L,0.2473100775193798,0.3355,0.1307142857142857,0.122
36,5,10,0,9,14.517999999999988,19,87,64,61,118,1,14.639999999999988,0.061,5.428999999999996,15.310999999999988,20,1,11,17,88,1,19,68,4,0,16,4,6,L,0.16636363636363635,0.061,0.28573684210526307,0.22516176470588234
37,1,1,0,10,24.33899999999998,15,112,93,89,88,86,25.25399999999998,0.427,4.025999999999997,2.500999999999998,19,3,10,10,116,3,14,16,3,1,36,3,6,L,0.21770689655172412,0.14233333333333334,0.28757142857142853,0.1563125
37,1,2,0,6,26.29099999999998,13,126,8,35,33,4,27.327999999999978,4.818999999999996,3.598999999999997,5.7949999999999955,20,10,13,13,137,22,16,27,6,0,22,5.5,6,L,0.19947445255474452,0.21904545454545452,0.22493749999999996,0.21462962962962961
37,2,3,0,1,37.51499999999997,14,174,58,14,83,79,39.64999999999997,1.7689999999999988,0.122,0.7929999999999997,20,3,2,3,182,6,2,3,3,0,16,4,6,L,0.21785714285714283,0.29483333333333334,0.061,0.2643333333333333
37,2,4,0,10,34.952999999999975,19,144,96,34,95,85,35.440999999999974,1.585999999999999,1.0369999999999995,0.183,20,6,5,1,147,7,5,1,3,0.5,23,3.5,6,L,0.24109523809523808,0.22657142857142853,0.20739999999999997,0.183
37,3,5,0,5,38.06399999999997,11,166,43,37,48,120,39.10099999999997,0.9759999999999995,0.061,12.93199999999999,13,6,1,15,168,7,1,57,5,0.5,32,4.25,6,L,0.2327440476190476,0.13942857142857143,0.061,0.22687719298245612
37,3,6,0,2,27.815999999999978,15,129,58,5,32,31,28.425999999999977,6.160999999999995,5.550999999999996,1.8299999999999987,17,12,16,6,132,23,29,7,4,0,20,5,6,L,0.21534848484848482,0.2678695652173913,0.19141379310344828,0.2614285714285714
37,4,7,0,4,19.336999999999986,20,102,104,105,106,12,19.824999999999985,0.061,0.061,2.500999999999998,20,1,1,9,104,1,1,15,2,0.5,18,3,6,L,0.190625,0.061,0.061,0.16673333333333332
37,4,8,0,7,13.05399999999999,17,72,14,18,80,24,13.23699999999999,1.8909999999999987,5.245999999999996,3.903999999999997,19,8,14,10,74,8,28,16,6,0.5,39,5.25,6,L,0.17887837837837836,0.23637499999999997,0.18735714285714286,0.244
37,5,9,0,6,21.288999999999984,17,102,8,7,1,10,21.349999999999984,2.0739999999999985,7.9299999999999935,5.245999999999996,18,4,14,14,103,7,30,32,6,1,72,6,6,L,0.20728155339805823,0.2962857142857142,0.2643333333333333,0.16393749999999999
37,5,10,0,4,76.73800000000142,14,343,100,66,26,15,77.10400000000142,3.781999999999997,2.0739999999999985,1.7689999999999988,17,11,6,5,346,16,8,6,2,0,17,4.25,6,L,0.22284393063583813,0.23637499999999997,0.25925,0.2948333333333333
38,1,1,0,2,18.787999999999986,19,108,32,2,78,10,39.28399999999997,0.427,0.5489999999999999,0.244,20,3,5,2,186,3,5,2,4,0,20,5,6,L,0.2112043010752688,0.14233333333333334,0.1098,0.122
38,1,2,0,8,25.25399999999998,16,111,117,118,22,37,25.49799999999998,0.183,6.648999999999995,8.112999999999994,18,2,14,14,113,2,29,39,2,0,15,3.75,6,L,0.22564601769911502,0.0915,0.2292758620689655,0.208025641025641
38,2,3,0,3,34.098999999999975,20,160,26,25,30,35,35.074999999999974,3.9649999999999967,2.0129999999999986,2.3789999999999982,20,13,8,10,162,20,11,12,5,1,60,5,6,L,0.2165123456790123,0.19824999999999998,0.183,0.19824999999999998
38,2,4,0,2,59.47499999999995,12,247,50,6,53,2,59.53599999999995,2.561999999999998,3.2329999999999974,5.062999999999996,13,11,9,12,248,19,11,22,4,0,20,5,6,L,0.24006451612903223,0.1348421052631579,0.29390909090909084,0.23013636363636364
38,3,5,0,7,19.153999999999986,18,95,23,15,20,48,19.214999999999986,0.061,5.184999999999996,7.136999999999994,19,1,14,13,96,1,25,21,6,0.5,41,5.75,6,L,0.20015624999999998,0.061,0.2074,0.3398571428571428
38,3,6,0,8,32.63499999999998,20,145,118,117,111,110,33.000999999999976,1.524999999999999,0.5489999999999999,3.903999999999997,20,6,5,9,148,8,6,15,2,1,24,2,6,L,0.2229797297297297,0.19062499999999993,0.0915,0.26026666666666665
38,4,7,0,7,23.362999999999982,17,108,19,17,22,29,24.33899999999998,0.305,8.661999999999994,2.622999999999998,20,2,17,10,113,2,40,12,6,0.5,41,5.75,6,L,0.21538938053097342,0.1525,0.21655,0.2185833333333333
38,4,8,0,1,23.179999999999982,19,114,73,80,76,37,23.60699999999998,0.244,1.8299999999999987,3.537999999999997,20,2,8,7,117,2,8,9,3,0.5,23,3.5,6,L,0.20176923076923076,0.122,0.22875,0.393111111111111
38,5,9,0,3,23.97299999999998,15,105,26,27,28,17,24.33899999999998,0.244,2.500999999999998,1.0979999999999994,18,2,11,4,108,2,13,4,5,0.5,36,5.25,6,L,0.2253611111111111,0.122,0.19238461538461538,0.27449999999999997
38,5,10,0,6,53.49699999999996,15,236,9,75,6,83,55.509999999999955,1.1589999999999994,2.9889999999999977,1.463999999999999,20,5,11,4,249,5,14,6,6,0,18,4.5,6,L,0.2229317269076305,0.23179999999999995,0.21349999999999997,0.24399999999999994
39,1,1,0,4,12.26099999999999,16,61,100,101,102,3,12.62699999999999,1.0979999999999994,2.9279999999999977,3.781999999999997,19,7,7,10,64,7,10,14,2,0.5,18,3,6,L,0.19729687499999998,0.15685714285714286,0.29279999999999995,0.27014285714285713
39,1,2,0,10,73.38300000000103,17,313,91,87,14,38,73.68800000000104,1.3419999999999992,3.3549999999999973,0.5489999999999999,19,7,12,2,315,7,18,2,3,0,17,4.25,6,L,0.2339301587301587,0.1917142857142857,0.18638888888888888,0.27449999999999997
39,2,3,0,2,20.739999999999984,18,100,53,58,54,94,20.983999999999984,3.659999999999997,1.646999999999999,2.439999999999998,19,11,6,9,101,17,7,10,4,0.5,27,3.75,6,L,0.20776237623762375,0.2152941176470588,0.2352857142857143,0.24399999999999997
39,2,4,0,4,30.255999999999975,19,134,97,102,98,104,32.81799999999998,0.7929999999999997,7.014999999999994,3.537999999999997,20,3,12,9,145,3,29,13,2,1,24,2,6,L,0.2263310344827586,0.2643333333333333,0.24189655172413788,0.27215384615384614
39,3,5,0,8,35.928999999999974,17,178,111,118,112,51,38.67399999999997,0.9759999999999995,1.4029999999999991,1.0369999999999995,20,2,4,4,185,2,5,5,2,0.5,16,2.5,6,L,0.20904864864864864,0.4879999999999999,0.28059999999999996,0.2074
39,3,6,0,7,21.349999999999984,17,110,17,24,107,75,21.410999999999984,7.258999999999994,7.319999999999994,3.0499999999999976,18,13,13,12,111,27,28,15,6,0,17,4.25,6,L,0.19289189189189188,0.26885185185185184,0.2614285714285714,0.2033333333333333
39,4,7,0,3,37.02699999999997,13,165,25,35,29,33,37.75899999999997,1.4029999999999991,1.9519999999999986,1.0979999999999994,16,6,11,7,168,7,15,8,5,1,60,5,6,L,0.22475595238095236,0.20042857142857143,0.13013333333333332,0.13724999999999998
39,4,8,0,6,25.55899999999998,18,101,1,2,44,9,25.61999999999998,2.8669999999999978,5.001999999999996,12.19999999999999,19,11,11,16,102,14,16,62,6,0.5,41,5.75,6,L,0.2511764705882353,0.2047857142857143,0.31262499999999993,0.19677419354838707
39,5,9,0,2,20.129999999999985,18,94,83,60,54,59,22.386999999999983,1.7079999999999989,7.075999999999994,1.646999999999999,20,10,9,5,100,13,24,5,4,0.5,27,3.75,6,L,0.22386999999999999,0.13138461538461538,0.2948333333333333,0.3293999999999999
39,5,10,0,8,13.23699999999999,17,60,120,15,19,113,18.665999999999986,17.384999999999987,10.491999999999992,0.061,20,18,17,1,82,79,53,1,2,0,16,4,6,L,0.2276341463414634,0.22006329113924047,0.1979622641509434,0.061
40,1,1,0,4,17.201999999999988,19,84,104,108,106,97,20.983999999999984,0.061,0.5489999999999999,3.1109999999999975,20,1,3,8,96,1,3,10,2,1,24,2,6,L,0.2185833333333333,0.061,0.183,0.3110999999999999
40,1,2,0,9,20.556999999999984,18,106,70,68,62,21,21.227999999999984,0.9759999999999995,3.842999999999997,2.1349999999999985,20,4,10,8,109,5,16,11,4,0.5,30,4.5,6,L,0.19475229357798166,0.19519999999999998,0.2401875,0.19409090909090906
40,2,3,0,7,22.752999999999982,18,122,15,24,35,32,22.813999999999982,2.3179999999999983,2.683999999999998,1.3419999999999992,19,9,8,7,123,11,12,8,6,0,22,5.5,6,L,0.18547967479674796,0.2107272727272727,0.22366666666666665,0.16775
40,2,4,0,9,33.549999999999976,10,138,61,69,64,38,34.708999999999975,0.366,1.7079999999999989,1.7079999999999989,15,2,4,8,144,2,5,9,4,0.5,29,4.25,6,L,0.2410347222222222,0.183,0.3415999999999999,0.18977777777777777
40,3,5,0,7,59.77999999999995,12,254,17,13,44,71,59.84099999999995,11.467999999999991,0.6709999999999998,0.061,13,17,1,1,255,50,1,1,6,0,21,5.25,6,L,0.2346705882352941,0.22935999999999998,0.6709999999999998,0.061
40,3,6,0,2,23.42399999999998,15,113,53,56,55,11,30.987999999999975,0.183,0.7929999999999997,10.064999999999992,20,1,5,16,151,2,6,43,4,0.5,30,4.5,6,L,0.20521854304635762,0.0915,0.13216666666666665,0.23406976744186045
40,4,7,0,3,25.80299999999998,18,118,34,33,30,25,27.205999999999978,0.427,2.561999999999998,4.330999999999997,20,5,9,12,122,5,11,19,5,1,60,5,6,L,0.22299999999999998,0.0854,0.2329090909090909,0.22794736842105262
40,4,8,0,2,17.933999999999987,20,89,50,45,47,60,17.994999999999987,9.454999999999993,10.674999999999992,0.7319999999999998,20,17,17,5,90,41,49,6,4,0,18,4.5,6,L,0.19994444444444442,0.23060975609756096,0.21785714285714283,0.122
40,5,9,0,2,61.85399999999995,19,270,59,58,98,53,63.80599999999995,0.122,3.1719999999999975,9.576999999999993,20,2,11,15,285,2,15,39,4,0.5,26,3.5,6,L,0.22388070175438596,0.061,0.21146666666666666,0.24556410256410252
40,5,10,0,5,16.713999999999988,18,84,38,72,111,11,19.885999999999985,12.80999999999999,6.038999999999995,3.0499999999999976,20,16,16,8,102,52,32,11,5,0,17,4.25,6,L,0.1949607843137255,0.2463461538461538,0.18871874999999996,0.2772727272727272
41,1,1,0,2,40.25999999999997,20,172,53,58,49,38,41.35799999999997,3.1719999999999975,0.305,3.842999999999997,20,7,3,10,178,8,3,16,4,0.5,29,4.25,5,L,0.23234831460674155,0.39649999999999996,0.10166666666666667,0.24018749999999997
41,1,2,0,1,17.140999999999988,19,92,84,33,78,21,17.201999999999988,4.635999999999997,1.7689999999999988,16.835999999999988,20,11,6,16,93,21,7,61,3,0,17,4.25,5,L,0.18496774193548388,0.22076190476190474,0.25271428571428567,0.27599999999999997
41,2,3,0,5,34.586999999999975,20,162,44,15,108,102,44.773999999999965,3.659999999999997,3.9649999999999967,9.576999999999993,20,10,11,16,202,13,13,43,5,0,15,3.75,5,L,0.22165346534653463,0.2815384615384615,0.30499999999999994,0.22272093023255812
41,2,4,0,3,14.334999999999988,18,66,32,25,29,12,14.700999999999988,3.659999999999997,0.183,7.685999999999994,20,10,2,15,68,19,2,27,5,0.5,36,5.25,5,L,0.21619117647058822,0.1926315789473684,0.0915,0.2846666666666666
41,3,5,0,2,20.617999999999984,19,77,56,59,53,55,21.898999999999983,4.635999999999997,0.061,0.427,20,10,1,3,81,14,1,3,4,1,48,4,5,L,0.270358024691358,0.33114285714285707,0.061,0.14233333333333334
41,3,6,0,9,37.57599999999997,16,167,64,62,63,19,37.88099999999997,3.2329999999999974,0.7929999999999997,1.0369999999999995,18,10,3,2,170,13,3,2,4,0.5,30,4.5,5,L,0.22282941176470586,0.24869230769230766,0.2643333333333333,0.5184999999999998
41,4,7,0,2,37.81999999999997,14,177,56,89,59,108,39.10099999999997,9.210999999999993,5.001999999999996,12.26099999999999,17,15,12,14,180,41,19,45,4,0,13,3.25,5,L,0.21722777777777777,0.22465853658536583,0.2632631578947368,0.27246666666666663
41,4,8,0,9,72.2850000000009,13,289,116,65,68,40,73.2610000000009,2.0739999999999985,0.244,0.9759999999999995,14,6,1,2,290,7,1,2,4,0,15,3.75,5,L,0.25262413793103444,0.29628571428571426,0.244,0.4879999999999999
42,1,1,0,10,17.506999999999987,15,88,92,3,7,40,18.299999999999986,18.238999999999987,0.7319999999999998,0.061,20,18,8,1,94,65,9,1,3,0,20,5,6,L,0.19468085106382976,0.28059999999999996,0.08133333333333333,0.061
42,1,2,0,7,20.739999999999984,17,84,14,18,70,13,20.983999999999984,1.9519999999999986,11.101999999999991,4.086999999999997,18,6,18,11,85,9,57,20,6,0.5,40,5.5,6,L,0.2468705882352941,0.21688888888888888,0.19477192982456137,0.20434999999999998
42,2,3,0,5,19.946999999999985,18,86,6,46,43,64,48.00699999999996,0.122,1.524999999999999,0.488,20,1,8,4,196,1,9,4,5,0,20,5,6,L,0.24493367346938774,0.122,0.16944444444444445,0.122
42,2,4,0,8,19.885999999999985,20,97,112,115,25,57,21.593999999999983,2.683999999999998,6.343999999999995,2.0739999999999985,20,7,14,9,107,10,27,12,2,0,13,3.25,6,L,0.20181308411214952,0.26839999999999997,0.23496296296296293,0.17283333333333334
42,3,5,0,1,26.53499999999998,17,121,78,76,74,10,27.388999999999978,1.1589999999999994,0.061,3.2939999999999974,20,6,1,11,125,6,1,12,3,0.5,24,3.75,6,L,0.21911199999999997,0.19316666666666665,0.061,0.27449999999999997
42,3,6,0,7,18.604999999999986,16,95,13,16,22,21,18.726999999999986,1.524999999999999,0.7319999999999998,3.9649999999999967,18,5,4,11,97,6,4,18,6,1,72,6,6,L,0.1930618556701031,0.25416666666666665,0.183,0.22027777777777777
42,4,7,0,1,30.865999999999975,17,130,84,45,74,43,32.75699999999998,7.258999999999994,1.463999999999999,3.2939999999999974,20,16,5,11,138,29,5,14,3,0,16,4,6,L,0.23736956521739128,0.2503103448275862,0.2928,0.23528571428571426
42,4,8,0,7,15.005999999999988,17,68,13,19,21,18,17.201999999999988,0.6099999999999999,4.940999999999996,2.500999999999998,20,2,11,7,74,2,20,12,6,1,72,6,6,L,0.23245945945945945,0.305,0.24705,0.20841666666666664
42,5,9,0,6,17.750999999999987,17,80,5,1,8,39,18.848999999999986,11.83399999999999,1.7689999999999988,1.463999999999999,20,13,8,5,89,49,10,6,6,0.5,41,5.75,6,L,0.21178651685393257,0.24151020408163262,0.1769,0.244
42,5,10,0,9,54.533999999999956,18,242,68,71,67,63,54.716999999999956,0.305,1.585999999999999,0.5489999999999999,19,1,4,3,243,1,5,3,4,1,48,4,6,L,0.2251728395061728,0.305,0.3171999999999999,0.183
43,1,1,0,1,20.678999999999984,17,99,76,27,70,14,20.800999999999984,15.554999999999987,2.0129999999999986,0.488,18,17,8,2,100,72,10,2,3,0,18,4.5,6,L,0.20800999999999997,0.21604166666666663,0.20129999999999998,0.244
43,1,2,0,10,35.562999999999974,16,163,6,86,94,45,45.566999999999965,0.7929999999999997,0.122,0.183,20,2,1,1,214,2,1,1,3,0,17,4.25,6,L,0.21292990654205607,0.39649999999999985,0.122,0.183
43,2,3,0,6,27.754999999999978,13,138,3,1,30,10,28.669999999999977,1.524999999999999,6.8319999999999945,3.4159999999999973,17,7,17,13,143,8,32,17,6,0.5,41,5.75,6,L,0.20048951048951047,0.190625,0.2135,0.20094117647058823
43,2,4,0,10,14.212999999999989,18,66,86,88,93,95,16.591999999999988,0.061,1.3419999999999992,3.842999999999997,20,1,2,11,75,1,2,16,3,1,36,3,6,L,0.22122666666666665,0.061,0.6709999999999996,0.24018749999999997
43,3,5,0,8,18.970999999999986,17,99,116,115,112,7,20.251999999999985,0.488,0.244,6.099999999999995,20,3,2,11,106,3,2,23,2,0.5,18,3,6,L,0.19105660377358488,0.16266666666666665,0.122,0.2652173913043478
43,3,6,0,2,36.05099999999997,18,158,58,49,47,22,37.08799999999997,2.439999999999998,2.561999999999998,2.439999999999998,20,9,15,10,165,14,19,12,4,0,19,4.75,6,L,0.22477575757575755,0.1742857142857143,0.1348421052631579,0.20333333333333334
43,4,7,0,6,56.363999999999955,13,254,6,44,1,80,56.424999999999955,0.488,5.123999999999996,2.2569999999999983,14,1,12,4,255,1,21,4,6,0,20,5,6,L,0.22127450980392155,0.488,0.24399999999999997,0.5642499999999998
43,4,8,0,3,12.62699999999999,20,58,17,26,24,23,26.10799999999998,0.366,20.922999999999984,12.38299999999999,20,3,18,16,104,4,96,53,5,0.5,41,5.75,6,L,0.2510384615384615,0.0915,0.21794791666666663,0.23364150943396222
43,5,9,0,10,63.31799999999995,14,278,91,46,50,88,67.58799999999995,4.086999999999997,0.427,0.244,20,6,2,1,306,9,2,1,3,0,15,3.75,6,L,0.22087581699346404,0.45411111111111097,0.2135,0.244
43,5,10,0,1,21.166999999999984,20,99,73,28,74,25,21.410999999999984,2.744999999999998,0.366,11.77299999999999,20,9,2,16,100,12,2,44,3,0,16,4,6,L,0.21410999999999997,0.22874999999999998,0.183,0.2675681818181818
44,1,1,0,5,20.800999999999984,17,110,42,43,38,37,21.593999999999983,1.7689999999999988,0.427,3.4159999999999973,20,6,3,12,115,7,3,17,5,1,60,5,6,L,0.18777391304347826,0.2527142857142857,0.14233333333333334,0.20094117647058823
44,1,2,0,8,9.027999999999993,18,39,2,111,110,68,36.66099999999997,0.061,0.183,0.6099999999999999,20,1,2,2,143,1,2,2,2,0,14,3.5,6,L,0.2563706293706293,0.061,0.0915,0.305
44,2,3,0,3,17.750999999999987,14,84,26,27,36,29,18.848999999999986,0.6709999999999998,0.6099999999999999,2.2569999999999983,18,4,2,6,89,4,2,7,5,1,60,5,6,L,0.21178651685393257,0.16775,0.305,0.3224285714285714
44,2,4,0,5,51.42299999999996,18,228,47,41,43,48,51.54499999999996,3.9649999999999967,0.366,0.122,20,15,1,1,230,18,1,1,5,1,60,5,6,L,0.2241086956521739,0.22027777777777777,0.366,0.122
44,3,5,0,7,20.495999999999984,18,112,13,76,17,24,25.19299999999998,4.269999999999997,0.122,0.305,20,9,1,4,129,11,1,4,6,0.5,39,5.25,6,L,0.19529457364341085,0.3881818181818181,0.122,0.07625
44,3,6,0,2,56.485999999999954,12,239,50,52,46,54,56.729999999999954,0.366,6.221999999999995,4.635999999999997,16,2,10,13,243,3,19,23,4,0.5,29,4.25,6,L,0.23345679012345677,0.122,0.32747368421052625,0.2015652173913043
44,4,7,0,8,31.658999999999974,18,155,112,113,119,120,31.841999999999974,0.427,3.1719999999999975,9.881999999999993,19,2,6,16,156,2,7,54,2,1,24,2,6,L,0.2041153846153846,0.2135,0.45314285714285707,0.183
44,4,8,0,4,52.33799999999996,12,235,101,104,107,102,52.82599999999996,1.1589999999999994,2.1959999999999984,4.025999999999997,15,4,9,10,238,5,13,12,2,1,24,2,6,L,0.22195798319327728,0.2318,0.16892307692307693,0.33549999999999996
44,5,9,0,1,36.29499999999997,17,149,83,80,76,14,36.47799999999997,1.7079999999999989,0.061,5.367999999999996,19,6,1,14,151,6,1,30,3,0.5,24,3.75,6,L,0.24157615894039733,0.28466666666666657,0.061,0.17893333333333333
44,5,10,0,2,20.800999999999984,20,97,54,59,3,41,21.593999999999983,3.1109999999999975,2.8669999999999978,8.844999999999994,20,10,8,15,102,17,11,43,4,0,19,4.75,6,L,0.21170588235294116,0.18299999999999997,0.26063636363636355,0.20569767441860465
45,1,1,0,7,28.120999999999977,18,133,21,15,80,30,29.584999999999976,3.598999999999997,12.56599999999999,2.2569999999999983,20,12,14,5,141,17,43,6,6,0,20,5,6,L,0.20982269503546097,0.21170588235294116,0.29223255813953486,0.3761666666666666
45,1,2,0,8,27.632999999999978,18,123,111,115,112,64,28.242999999999977,2.0739999999999985,1.646999999999999,5.367999999999996,20,10,8,11,128,13,9,17,2,0.5,16,2.5,6,L,0.2206484375,0.15953846153846152,0.183,0.3157647058823529
45,2,3,0,4,19.885999999999985,18,90,108,97,107,65,20.556999999999984,0.061,6.160999999999995,2.0739999999999985,20,1,14,8,95,1,25,9,2,0.5,16,2.5,6,L,0.21638947368421052,0.061,0.24643999999999996,0.23044444444444442
45,2,4,0,8,37.81999999999997,19,164,111,112,38,76,39.28399999999997,1.3419999999999992,17.567999999999987,0.061,20,4,18,1,171,6,88,1,2,0,12,3,6,L,0.22973099415204676,0.22366666666666665,0.1996363636363636,0.061
45,3,5,0,4,20.190999999999985,14,88,108,99,98,82,21.288999999999984,2.1349999999999985,0.488,5.428999999999996,19,6,3,12,93,6,3,18,2,0.5,15,2.25,6,L,0.22891397849462364,0.3558333333333332,0.16266666666666665,0.30161111111111105
45,3,6,0,3,25.49799999999998,19,113,36,33,15,34,26.10799999999998,2.2569999999999983,0.122,2.0129999999999986,20,8,1,8,117,10,1,8,5,0.5,36,5.25,6,L,0.22314529914529913,0.22569999999999996,0.122,0.251625
45,4,7,0,3,29.279999999999976,19,134,26,28,30,15,30.499999999999975,16.835999999999988,3.903999999999997,2.9279999999999977,20,18,10,10,139,73,18,13,5,0.5,36,5.25,6,L,0.21942446043165467,0.23063013698630136,0.21688888888888885,0.22523076923076923
45,4,8,0,5,12.87099999999999,19,77,45,44,42,48,13.11499999999999,0.488,6.8929999999999945,0.122,20,2,16,2,80,2,39,2,5,1,60,5,6,L,0.16393749999999999,0.244,0.17674358974358972,0.061
45,5,9,0,3,18.360999999999986,18,77,31,29,108,34,18.421999999999986,0.9759999999999995,12.13899999999999,1.7689999999999988,19,5,16,5,78,6,48,6,5,0.5,32,4.25,6,L,0.23617948717948717,0.16266666666666665,0.25289583333333326,0.2948333333333333
45,5,10,0,9,49.22699999999996,13,220,61,68,65,23,49.89799999999996,0.305,0.183,1.2809999999999993,16,3,2,3,223,3,2,5,4,0.5,30,4.5,6,L,0.22375784753363226,0.10166666666666667,0.0915,0.2562
46,1,1,0,5,13.846999999999989,19,69,45,85,50,54,18.543999999999986,4.7579999999999965,6.587999999999995,0.5489999999999999,20,9,15,1,86,13,26,1,5,0,16,4,6,L,0.21562790697674417,0.36599999999999994,0.2533846153846154,0.5489999999999999
46,1,2,0,1,43.43199999999997,16,184,74,83,33,80,44.468999999999966,0.305,2.1349999999999985,0.5489999999999999,20,3,7,4,190,3,8,4,3,0.5,23,3.5,6,L,0.23404736842105262,0.10166666666666667,0.266875,0.13724999999999998
46,2,3,0,1,26.35199999999998,18,127,82,79,74,18,26.77899999999998,0.9149999999999996,4.6969999999999965,1.7079999999999989,20,5,12,8,131,7,18,10,3,0.5,24,3.75,6,L,0.20441984732824425,0.1307142857142857,0.2609444444444444,0.1708
46,2,4,0,10,46.176999999999964,14,207,1,96,27,29,63.37899999999995,0.183,0.9149999999999996,0.244,20,1,5,2,293,1,5,2,3,0,19,4.75,6,L,0.21631058020477814,0.183,0.183,0.122
46,3,5,0,1,26.53499999999998,18,121,80,84,60,59,28.059999999999977,5.123999999999996,20.617999999999984,5.7339999999999955,20,14,18,17,125,26,75,29,3,0,14,3.5,6,L,0.22447999999999999,0.19707692307692307,0.27490666666666663,0.19772413793103447
46,3,6,0,5,25.49799999999998,19,115,46,42,95,67,25.55899999999998,1.8909999999999987,1.2809999999999993,0.7929999999999997,20,7,5,1,116,9,5,1,5,0,17,4.25,6,L,0.2203362068965517,0.21011111111111108,0.2562,0.7929999999999997
46,4,7,0,2,26.77899999999998,17,137,58,19,43,41,31.292999999999974,2.805999999999998,1.8299999999999987,0.7929999999999997,20,11,6,5,154,14,6,6,4,0,20,5,6,L,0.2032012987012987,0.20042857142857143,0.30499999999999994,0.13216666666666665
46,4,8,0,6,18.360999999999986,11,75,4,9,7,34,18.482999999999986,0.7319999999999998,11.650999999999991,0.6709999999999998,12,2,17,4,76,2,56,4,6,0.5,41,5.75,6,L,0.2431973684210526,0.366,0.20805357142857142,0.16775
46,5,9,0,4,30.255999999999975,19,124,104,102,44,52,30.438999999999975,8.722999999999994,0.244,0.8539999999999996,20,15,2,3,125,36,2,3,2,0,13,3.25,6,L,0.24351199999999998,0.24230555555555555,0.122,0.2846666666666667
46,5,10,0,3,10.979999999999992,17,57,25,31,30,65,11.650999999999991,0.366,0.366,5.855999999999995,20,3,4,13,62,3,4,24,5,0.5,34,4.75,6,L,0.18791935483870967,0.122,0.0915,0.244
47,1,1,0,2,63.62299999999995,16,278,31,60,24,50,64.29399999999995,0.183,7.075999999999994,0.305,18,3,13,1,280,3,27,1,4,0,19,4.75,6,L,0.22962142857142856,0.061,0.26207407407407407,0.305
47,1,2,0,8,25.25399999999998,18,107,119,114,120,112,25.43699999999998,0.122,1.524999999999999,0.8539999999999996,19,1,7,4,108,1,7,4,2,1,24,2,6,L,0.23552777777777775,0.122,0.21785714285714286,0.2135
47,2,3,0,1,26.35199999999998,19,112,78,73,79,31,26.83999999999998,2.500999999999998,0.6709999999999998,2.9279999999999977,20,8,4,6,116,9,4,13,3,0.5,23,3.5,6,L,0.23137931034482756,0.27788888888888885,0.16775,0.22523076923076923
47,2,4,0,5,15.371999999999987,13,77,43,42,44,4,16.896999999999988,6.709999999999995,6.587999999999995,0.244,20,13,17,2,85,29,34,2,5,0.5,36,5.25,6,L,0.19878823529411763,0.23137931034482756,0.19376470588235292,0.122
47,3,5,0,6,17.933999999999987,20,83,3,8,9,5,19.580999999999985,0.8539999999999996,1.1589999999999994,2.2569999999999983,20,4,6,7,88,4,6,10,6,1,72,6,6,L,0.22251136363636362,0.2135,0.19316666666666663,0.22569999999999998
47,3,6,0,3,31.963999999999974,19,142,13,30,51,24,67.89299999999994,0.183,0.244,0.5489999999999999,20,1,4,3,300,1,4,4,5,0,21,5.25,6,L,0.22630999999999998,0.183,0.061,0.13724999999999998
47,4,7,0,6,29.523999999999976,17,142,11,9,78,83,31.780999999999974,0.7929999999999997,2.3789999999999982,1.646999999999999,20,3,6,4,153,3,6,4,6,0,18,4.5,6,L,0.20771895424836598,0.2643333333333333,0.3964999999999999,0.4117499999999999
47,4,8,0,7,23.72899999999998,18,103,20,13,19,45,25.00999999999998,1.0369999999999995,6.038999999999995,3.0499999999999976,20,3,11,9,108,4,25,12,6,0.5,41,5.75,6,L,0.23157407407407404,0.25925,0.24155999999999997,0.25416666666666665
47,5,9,0,5,36.23399999999997,17,162,83,14,104,22,49.83699999999996,29.035999999999976,1.3419999999999992,0.061,20,19,8,1,214,115,8,1,5,0,17,4.25,6,L,0.23288317757009344,0.2524869565217391,0.16775,0.061
47,5,10,0,10,25.25399999999998,16,109,92,96,95,88,25.31499999999998,1.463999999999999,0.7929999999999997,0.9759999999999995,17,8,3,5,110,10,3,5,3,1,36,3,6,L,0.2301363636363636,0.1464,0.2643333333333333,0.19519999999999998
48,1,1,0,10,30.987999999999975,18,134,88,95,86,38,31.475999999999974,0.8539999999999996,0.122,2.9279999999999977,20,3,1,11,139,3,1,14,3,0.5,23,3.5,5,L,0.2264460431654676,0.2846666666666666,0.122,0.20914285714285713
48,1,2,0,1,56.973999999999954,17,263,75,5,25,3,57.095999999999954,0.6099999999999999,3.537999999999997,2.744999999999998,18,1,10,5,264,2,16,8,3,0,20,5,5,L,0.21627272727272726,0.305,0.221125,0.3431249999999999
48,2,3,0,8,13.05399999999999,18,63,115,117,116,114,13.54199999999999,1.2809999999999993,2.500999999999998,4.635999999999997,20,8,9,10,68,9,14,16,2,1,24,2,5,L,0.1991470588235294,0.14233333333333334,0.1786428571428571,0.28974999999999995
48,2,4,0,7,70.21100000000067,12,288,17,38,47,52,72.10200000000067,0.7319999999999998,0.7929999999999997,0.8539999999999996,20,2,4,5,299,2,4,5,6,0,20,5,5,L,0.24114381270903007,0.3659999999999999,0.19824999999999998,0.1708
48,3,5,0,4,47.57999999999996,11,209,104,24,22,18,48.86099999999996,0.9149999999999996,9.576999999999993,1.585999999999999,16,2,14,5,214,4,35,5,2,0.5,38,5,5,L,0.22832242990654203,0.22874999999999998,0.2736285714285714,0.3172
48,3,6,0,8,29.035999999999976,15,126,112,115,116,119,29.889999999999976,0.183,1.1589999999999994,0.5489999999999999,20,2,5,5,131,2,6,6,2,1,24,2,5,L,0.2281679389312977,0.0915,0.19316666666666665,0.0915
48,4,7,0,8,23.057999999999982,19,99,110,118,117,115,23.60699999999998,1.2809999999999993,2.439999999999998,1.1589999999999994,20,7,6,3,101,7,9,4,2,1,24,2,5,L,0.2337326732673267,0.18299999999999997,0.2711111111111111,0.28975
