Subject,Round,Phase,afterbreak,Schema,Schema_RT,Schema_OB,Schema_AS,Cho_1,Cho_2,Cho_3,Cho_4,RT_1,RT_2,RT_3,RT_4,OB_1,OB_2,OB_3,OB_4,AS_1,AS_2,AS_3,AS_4,schema_payoff,AC,performance,payoff,success_schema,breakR,type,dwellmean_1,dwellmean_2,dwellmean_3,dwellmean_4
1,1,1,0,5,35.257999999999974,20,177,37,46,40,66,39.16199999999997,0.8539999999999996,2.3179999999999983,7.807999999999994,20,2,9,14,193,2,10,31,5,0.5,34,4.75,5,6,L,0.20291191709844558,0.42699999999999994,0.23179999999999998,0.25187096774193546
1,1,2,0,1,17.384999999999987,14,72,80,6,79,76,17.445999999999987,3.659999999999997,0.9759999999999995,0.061,15,8,2,1,73,15,3,1,3,0.5,24,3.75,"1,5",6,L,0.23898630136986299,0.244,0.32533333333333325,0.061
1,2,3,0,5,0.061,1,1,79,6,105,2,5.550999999999996,15.188999999999988,0.8539999999999996,9.881999999999993,12,16,3,15,19,75,3,37,5,0,17,4.25,0,6,L,0.21319191919191918,0.2004285714285714,0.2846666666666667,0.26708108108108103
1,2,4,0,3,15.737999999999987,19,83,26,33,29,36,15.920999999999987,0.122,4.330999999999997,3.659999999999997,20,1,10,10,84,1,17,19,5,1,60,5,3,6,L,0.18953571428571428,0.122,0.2547647058823529,0.1926315789473684
1,3,5,0,3,0.488,4,4,34,105,13,76,6.892999999999995,15.554999999999987,1.0369999999999995,0.7929999999999997,17,17,7,3,36,56,7,3,5,0,16,4,0,6,L,0.20629090909090908,0.27088135593220336,0.14814285714285713,0.2643333333333333
1,3,6,0,10,29.645999999999976,16,139,88,92,85,87,29.889999999999976,0.427,0.9759999999999995,2.622999999999998,18,4,4,6,141,4,5,9,3,1,36,3,10,6,L,0.21198581560283686,0.10675,0.19519999999999996,0.29144444444444445
1,4,7,0,2,86.9250000000026,12,360,55,108,52,49,87.4130000000026,1.3419999999999992,2.1349999999999985,1.4029999999999991,16,4,11,7,366,5,15,8,4,0.5,26,3.5,"2,10",6,L,0.23883333333333331,0.26839999999999997,0.14233333333333334,0.175375
1,4,8,0,10,0.183,2,2,94,89,67,86,1.4029999999999994,4.208999999999997,2.0129999999999986,3.476999999999997,7,13,5,14,7,16,7,25,3,0.5,22,3.25,"10,2",6,L,0.23789999999999997,0.29279999999999995,0.266875,0.13908
1,5,9,0,10,22.508999999999983,19,112,86,85,88,95,24.58299999999998,1.463999999999999,0.305,2.1349999999999985,20,8,2,7,122,10,2,7,3,1,36,3,"10,2",6,L,0.20149999999999998,0.1464,0.1525,0.30499999999999994
1,5,10,0,0,0,0,0,74,110,36,34,0.427,0.7929999999999997,2.561999999999998,1.646999999999999,1,5,12,6,1,5,14,6,0,0,15,3.75,10,6,L,0.27259374999999997,0.1586,0.183,0.27449999999999997
2,1,1,0,1,19.580999999999985,19,99,75,77,68,81,19.885999999999985,0.244,2.8669999999999978,7.136999999999994,20,2,4,15,100,2,7,44,3,0.5,22,3.25,1,6,L,0.19885999999999998,0.122,0.4095714285714285,0.16220454545454546
2,1,2,0,4,21.532999999999983,19,100,106,108,98,57,21.593999999999983,0.5489999999999999,5.489999999999996,1.4029999999999991,20,4,13,6,101,4,31,6,2,0.5,16,2.5,"4,1",6,L,0.2138019801980198,0.13724999999999998,0.17709677419354838,0.23383333333333334
2,2,3,0,4,15.737999999999987,20,82,100,107,99,57,18.116999999999987,2.0739999999999985,0.305,6.526999999999995,20,8,2,15,93,11,2,31,2,0.5,16,2.5,"4,1",6,L,0.19480645161290322,0.18854545454545452,0.1525,0.21054838709677415
2,2,4,0,1,25.25399999999998,20,113,80,78,83,81,25.92499999999998,1.1589999999999994,0.366,4.452999999999997,20,6,2,13,115,6,2,21,3,1,36,3,"1,4",6,L,0.22543478260869562,0.19316666666666665,0.183,0.21204761904761904
2,3,5,0,5,77.65300000000153,15,346,48,47,112,39,79.91000000000153,1.1589999999999994,11.040999999999991,0.427,20,4,18,3,355,4,52,3,5,0.5,32,4.25,"5,1,4",6,L,0.22509859154929576,0.28974999999999995,0.21232692307692305,0.14233333333333334
2,3,6,0,4,0.061,1,1,75,103,81,108,22.081999999999983,0.7929999999999997,0.305,0.061,20,3,1,1,93,3,1,1,2,0,10,2.5,5,6,L,0.23189312977099233,0.2643333333333333,0.305,0.061
2,4,7,0,6,38.85699999999997,9,175,3,2,7,56,39.52799999999997,0.7319999999999998,0.6709999999999998,2.9279999999999977,13,1,4,7,181,1,4,12,6,0.5,40,5.5,"6,5",6,L,0.2183867403314917,0.7319999999999998,0.16775,0.244
2,4,8,0,5,7.441999999999994,17,32,22,113,39,37,15.249999999999988,0.8539999999999996,0.6709999999999998,3.9649999999999967,20,1,5,11,63,2,5,16,5,0,18,4.5,6,6,L,0.21217391304347824,0.24769696969696967,0.13419999999999999,0.24781249999999994
2,5,9,0,0,0,0,0,34,78,82,56,0.6709999999999998,1.0979999999999994,0.8539999999999996,0.366,3,4,6,2,3,4,7,2,0,0,15,3.75,0,6,L,0.24754651162790695,0.27449999999999997,0.122,0.183
2,5,10,0,4,28.791999999999977,20,146,17,22,42,108,56.668999999999954,3.476999999999997,0.8539999999999996,0.305,20,12,3,3,254,15,3,3,2,0,19,4.75,0,6,L,0.2231062992125984,0.23179999999999998,0.2846666666666666,0.10166666666666667
3,1,1,0,7,15.371999999999987,17,77,13,24,36,18,15.432999999999987,4.513999999999997,3.1109999999999975,1.2199999999999993,18,12,7,3,78,19,10,4,6,0.5,41,5.75,7,6,L,0.19785897435897434,0.23757894736842103,0.31109999999999993,0.305
3,1,2,0,4,18.482999999999986,12,86,100,104,108,1,18.543999999999986,1.524999999999999,0.305,3.1109999999999975,13,6,2,9,87,6,2,15,2,0.5,18,3,"4,7",6,L,0.2131494252873563,0.25416666666666665,0.1525,0.2074
3,2,3,0,4,0.061,1,1,98,100,104,99,0.488,0.6709999999999998,0.183,0.6709999999999998,3,2,1,2,3,2,1,2,2,1,24,2,4,6,L,0.20148484848484846,0.3354999999999999,0.183,0.33549999999999996
3,2,4,0,1,23.78999999999998,16,124,79,47,74,71,23.91199999999998,8.234999999999994,1.524999999999999,7.624999999999994,17,16,5,13,125,42,7,32,3,0,15,3.75,4,6,L,0.191296,0.19607142857142856,0.21785714285714283,0.23828124999999997
3,3,5,0,1,32.14699999999998,12,143,84,74,79,73,32.51299999999998,2.3179999999999983,0.061,0.8539999999999996,15,11,1,4,146,13,1,5,3,1,36,3,"1,4",6,L,0.2226917808219178,0.1783076923076923,0.061,0.1708
3,3,6,0,4,0,0,0,106,104,100,105,1.4029999999999991,0.7319999999999998,0.9759999999999995,4.7579999999999965,6,2,4,13,6,2,4,25,2,1,24,2,"4,1",6,L,0.20356179775280897,0.32025,0.24399999999999997,0.19032
3,4,7,0,1,1.3419999999999992,10,11,78,70,77,12,1.8909999999999991,20.678999999999984,1.0979999999999994,13.48099999999999,12,18,5,16,13,90,6,50,3,0,16,4,4,6,L,0.22509859154929576,0.22858241758241757,0.18299999999999997,0.24399999999999997
3,4,8,0,4,0.061,1,1,100,99,97,54,1.1589999999999994,3.2329999999999974,4.269999999999997,3.4159999999999973,5,11,11,9,5,14,15,16,2,0.5,16,2.5,4,6,L,0.20877464788732392,0.2309285714285714,0.2846666666666667,0.2135
3,5,9,0,3,51.05699999999996,11,229,33,36,27,82,52.39899999999996,0.061,5.245999999999996,1.2809999999999993,16,1,12,4,234,1,20,5,5,0.5,33,4.5,"3,4",6,L,0.2239273504273504,0.061,0.2623,0.2562
3,5,10,0,4,1.585999999999999,6,6,101,89,90,58,4.452999999999997,9.759999999999993,4.269999999999997,5.001999999999996,17,16,12,13,21,35,19,19,2,0,12,3,3,6,L,0.18587735849056602,0.2687297297297297,0.23696153846153842,0.266875
4,1,1,0,6,16.34799999999999,18,81,6,8,58,26,16.469999999999988,1.7689999999999988,6.465999999999995,9.332999999999993,19,7,14,15,82,9,24,46,6,0,21,5.25,0,6,L,0.20085365853658535,0.19655555555555554,0.2694166666666666,0.20289130434782607
4,1,2,0,8,25.07099999999998,19,105,71,14,120,17,46.603999999999964,0.427,0.122,0.305,20,2,2,2,190,2,2,2,2,0,18,4.5,0,6,L,0.24528421052631577,0.2135,0.061,0.1525
4,2,3,0,9,28.181999999999977,18,114,67,64,62,22,29.462999999999976,1.7079999999999989,0.5489999999999999,5.855999999999995,20,6,3,15,120,7,3,28,4,0.5,30,4.5,9,6,L,0.24552499999999997,0.24399999999999994,0.183,0.20914285714285713
4,2,4,0,5,16.774999999999988,19,85,38,48,45,1,17.079999999999988,7.319999999999994,0.061,3.4159999999999973,20,11,1,8,86,27,1,8,5,0.5,36,5.25,"5,9",6,L,0.1986046511627907,0.2711111111111111,0.061,0.4269999999999999
4,3,5,0,5,0,0,0,48,45,39,99,2.439999999999998,3.2329999999999974,0.7319999999999998,11.77299999999999,10,11,4,15,11,20,4,53,5,0.5,32,4.25,"5,9",6,L,0.20718965517241378,0.1485217391304348,0.183,0.2221320754716981
4,3,6,0,9,18.665999999999986,19,97,72,24,83,115,21.898999999999983,4.269999999999997,15.615999999999987,2.3789999999999982,20,11,17,11,109,18,64,13,4,0,15,3.75,5,6,L,0.20090825688073394,0.23722222222222222,0.24399999999999997,0.183
4,4,7,0,1,21.349999999999984,20,100,75,80,78,73,23.42399999999998,0.427,2.0739999999999985,0.7929999999999997,20,3,5,6,105,3,6,8,3,1,36,3,"1,5",6,L,0.22308571428571428,0.14233333333333334,0.34566666666666657,0.09912499999999999
4,4,8,0,5,1.2809999999999993,7,7,44,42,114,113,1.5859999999999992,9.637999999999993,8.783999999999994,4.452999999999997,8,16,15,14,8,43,38,28,5,0,14,3.5,1,6,L,0.24174074074074073,0.21688888888888888,0.22043181818181815,0.15903571428571428
4,5,9,0,5,29.279999999999976,14,131,2,47,44,46,32.69599999999998,0.6099999999999999,0.305,1.0979999999999994,20,3,2,5,146,3,2,5,5,0.5,36,5.25,"5,1",6,L,0.22394520547945204,0.20333333333333334,0.1525,0.2196
4,5,10,0,1,20.678999999999984,19,103,77,79,35,26,21.349999999999984,1.8909999999999987,6.587999999999995,10.064999999999992,20,7,12,17,107,8,24,45,3,0,16,4,5,6,L,0.1995327102803738,0.23637499999999995,0.27449999999999997,0.22366666666666665
5,1,1,0,5,31.414999999999974,17,157,64,46,68,4,41.54099999999997,0.9759999999999995,9.698999999999993,2.0129999999999986,20,4,14,5,202,4,33,7,5,0,19,4.75,0,6,L,0.20564851485148514,0.244,0.29390909090909084,0.28757142857142853
5,1,2,0,2,18.482999999999986,15,85,52,53,59,55,19.458999999999985,0.427,0.427,1.524999999999999,18,3,4,3,88,3,4,5,4,1,48,4,2,6,L,0.221125,0.14233333333333334,0.10675,0.30499999999999994
5,2,3,0,0,0,0,0,78,100,77,20,0.488,1.585999999999999,2.500999999999998,2.622999999999998,3,8,6,11,3,11,7,14,0,0,14,3.5,0,6,L,0.20381176470588233,0.1441818181818182,0.35728571428571415,0.18735714285714286
5,2,4,0,10,16.04299999999999,18,72,85,86,90,89,16.530999999999988,2.9279999999999977,0.122,0.244,20,12,1,3,74,15,1,3,3,1,36,3,10,6,L,0.22339189189189188,0.19519999999999998,0.122,0.08133333333333333
5,3,5,0,4,33.915999999999976,16,150,97,102,40,64,33.976999999999975,1.646999999999999,3.720999999999997,0.9149999999999996,17,5,9,6,151,7,12,7,2,0,13,3.25,10,6,L,0.22501324503311257,0.23528571428571426,0.3100833333333333,0.1307142857142857
5,3,6,0,10,29.706999999999976,20,145,85,93,15,31,29.828999999999976,3.4159999999999973,3.2329999999999974,0.8539999999999996,20,8,10,4,146,13,12,5,3,0,17,4.25,0,6,L,0.20430821917808217,0.26276923076923075,0.26941666666666664,0.1708
5,4,7,0,6,24.27799999999998,20,100,4,11,31,84,24.33899999999998,7.502999999999994,1.0979999999999994,4.7579999999999965,20,12,4,11,101,28,5,22,6,0,20,5,0,6,L,0.24098019801980194,0.26796428571428565,0.2196,0.21627272727272726
5,4,8,0,10,36.41699999999997,19,166,89,16,88,91,38.61299999999997,2.9279999999999977,2.3789999999999982,0.061,20,9,8,1,176,16,13,1,3,0.5,24,3.75,10,6,L,0.21939204545454544,0.183,0.183,0.061
5,5,9,0,10,8.539999999999994,15,40,100,108,105,13,41.96799999999997,0.061,6.099999999999995,34.830999999999975,20,1,14,17,170,1,24,159,3,0.5,18,3,10,6,L,0.23911999999999997,0.061,0.25416666666666665,0.21906289308176097
5,5,10,0,6,11.406999999999991,13,63,6,10,36,28,11.467999999999991,0.9149999999999996,4.452999999999997,3.476999999999997,14,2,11,7,64,3,19,12,6,0,22,5.5,10,6,L,0.1791875,0.305,0.23436842105263156,0.28974999999999995
6,1,1,0,2,22.325999999999983,20,102,50,59,57,12,23.97299999999998,0.6709999999999998,3.2329999999999974,0.122,20,4,9,2,107,4,12,2,4,0.5,30,4.5,2,6,L,0.2240467289719626,0.16775,0.26941666666666664,0.061
6,1,2,0,8,19.092999999999986,18,97,119,114,112,18,19.153999999999986,0.6709999999999998,0.9759999999999995,5.977999999999995,19,4,4,15,98,4,5,29,2,0.5,18,3,"8,2",6,L,0.1954489795918367,0.16775,0.19519999999999998,0.20613793103448275
6,2,3,0,8,25.43699999999998,20,120,120,118,117,25,25.68099999999998,0.9149999999999996,1.524999999999999,6.709999999999995,20,6,4,14,122,6,4,31,2,0.5,17,2.75,"8,2",6,L,0.2105,0.1525,0.38124999999999987,0.2164516129032258
6,2,4,0,2,0.061,1,1,51,46,50,59,3.2329999999999974,0.488,0.061,0.427,10,1,1,2,12,1,1,2,4,0.5,29,4.25,"2,8",6,L,0.23101290322580645,0.488,0.061,0.2135
6,3,5,0,2,0.061,1,1,119,2,113,3,6.770999999999995,49.22699999999996,0.061,0.9759999999999995,13,19,1,3,27,192,1,3,4,0,16,4,0,6,L,0.21156962025316453,0.256390625,0.061,0.32533333333333325
6,3,6,0,7,14.090999999999989,10,54,15,19,20,21,18.055999999999987,1.8909999999999987,2.561999999999998,0.061,19,9,10,1,68,12,13,1,6,1,72,6,7,6,L,0.26552941176470585,0.15758333333333333,0.19707692307692307,0.061
6,4,7,0,6,16.34799999999999,13,92,2,69,62,39,16.40899999999999,5.7339999999999955,11.467999999999991,4.086999999999997,14,11,13,13,93,22,40,17,6,0,19,4.75,7,6,L,0.17644086021505376,0.2606363636363636,0.28669999999999995,0.24041176470588232
6,4,8,0,7,35.379999999999974,20,166,15,19,13,79,41.72399999999997,2.2569999999999983,4.7579999999999965,0.9149999999999996,20,10,15,5,204,12,25,6,6,0.5,39,5.25,7,6,L,0.20452941176470588,0.18808333333333332,0.19032,0.1525
6,5,9,0,0,0,0,0,91,99,85,98,1.0369999999999995,0.9759999999999995,0.6099999999999999,0.6709999999999998,5,3,3,5,6,4,3,5,0,0,10,2.5,0,6,L,0.15766153846153846,0.244,0.20333333333333334,0.13419999999999999
6,5,10,0,6,10.247999999999992,15,53,1,4,3,7,12.56599999999999,0.9759999999999995,2.0129999999999986,0.6709999999999998,20,7,7,4,69,8,7,5,6,1,72,6,6,6,L,0.1821159420289855,0.122,0.28757142857142853,0.13419999999999999
7,1,1,0,3,17.811999999999987,17,86,30,18,51,76,18.238999999999987,5.672999999999996,2.805999999999998,4.879999999999996,20,14,5,13,89,26,6,22,5,0,18,4.5,0,6,L,0.2049325842696629,0.21819230769230766,0.4676666666666665,0.2218181818181818
7,1,2,0,4,32.02499999999998,19,165,104,40,98,102,32.63499999999998,4.635999999999997,0.427,0.8539999999999996,20,10,3,4,168,16,3,5,2,0.5,17,2.75,4,6,L,0.19425595238095236,0.28974999999999995,0.14233333333333334,0.1708
7,2,3,0,8,43.00499999999997,12,180,115,109,72,112,46.90899999999996,2.500999999999998,5.062999999999996,0.061,20,10,14,1,200,12,24,1,2,0.5,16,2.5,"8,4",6,L,0.23454499999999998,0.20841666666666667,0.21095833333333333,0.061
7,2,4,0,4,2.1959999999999984,10,12,97,98,106,37,4.7579999999999965,2.1349999999999985,4.513999999999997,4.086999999999997,17,12,14,12,19,14,25,14,2,0.5,17,2.75,"4,8",6,L,0.25376,0.17079999999999998,0.18056,0.29192857142857137
7,3,5,0,4,0,0,0,108,98,103,35,2.2569999999999983,0.427,2.500999999999998,1.7689999999999988,7,5,12,8,8,5,16,10,2,0.5,17,2.75,"4,8",6,L,0.2324014084507042,0.0854,0.1563125,0.1769
7,3,6,0,8,1.4029999999999991,7,9,118,114,115,72,3.7209999999999974,1.646999999999999,0.8539999999999996,4.330999999999997,14,5,4,11,18,8,4,17,2,0.5,16,2.5,"8,4",6,L,0.19921518987341771,0.22736363636363635,0.183,0.25476470588235295
7,4,7,0,8,0.122,1,1,116,120,112,13,0.8539999999999998,6.526999999999995,1.3419999999999992,2.3789999999999982,6,14,7,11,7,26,9,17,2,0.5,18,3,"8,4",6,L,0.1818155339805825,0.2510384615384615,0.1491111111111111,0.13994117647058824
7,4,8,0,4,30.316999999999975,19,135,105,101,74,39,34.708999999999975,2.0129999999999986,2.1349999999999985,2.1349999999999985,20,9,9,6,165,10,12,9,2,0,12,3,8,6,L,0.21035757575757574,0.2013,0.17791666666666667,0.2372222222222222
7,5,9,0,1,26.77899999999998,17,144,79,80,36,74,30.560999999999975,0.488,4.940999999999996,0.183,20,3,11,1,163,3,22,1,3,0.5,23,3.5,"1,8",6,L,0.18749079754601225,0.16266666666666665,0.22459090909090906,0.183
7,5,10,0,0,0,0,0,16,88,52,56,6.160999999999995,5.184999999999996,2.0739999999999985,1.2199999999999993,13,12,9,5,24,33,10,6,0,0,17,4.25,1,6,L,0.2327631578947368,0.1571212121212121,0.2074,0.2033333333333333
8,1,1,0,7,19.580999999999985,16,100,13,23,34,17,22.447999999999983,1.585999999999999,1.1589999999999994,1.8299999999999987,20,8,4,7,107,11,4,8,6,0.5,41,5.75,7,6,L,0.20979439252336446,0.1441818181818182,0.28975,0.22874999999999995
8,1,2,0,1,27.937999999999978,17,135,81,75,74,6,29.035999999999976,2.0129999999999986,3.720999999999997,0.183,20,10,9,2,142,12,17,2,3,0.5,24,3.75,"1,7",6,L,0.20447887323943661,0.16775,0.21888235294117644,0.0915
8,2,3,0,1,19.824999999999985,15,76,80,84,77,7,21.654999999999983,2.439999999999998,0.366,0.9149999999999996,20,10,2,2,82,12,2,2,3,0.5,24,3.75,"1,7",6,L,0.2640853658536585,0.2033333333333333,0.183,0.4574999999999998
8,2,4,0,7,16.16499999999999,19,78,21,13,64,63,24.216999999999985,0.7929999999999997,7.685999999999994,2.8669999999999978,20,5,15,12,117,5,33,17,6,0,20,5,1,6,L,0.20698290598290597,0.1586,0.2329090909090909,0.1686470588235294
8,3,5,0,1,12.74899999999999,16,58,77,80,81,16,12.93199999999999,1.2809999999999993,0.488,12.32199999999999,19,5,4,15,61,6,5,42,3,0.5,24,3.75,1,6,L,0.19634374999999998,0.2135,0.09759999999999999,0.29338095238095235
8,3,6,0,8,31.719999999999974,14,113,110,115,120,116,34.952999999999975,0.122,1.7079999999999989,0.244,20,2,7,3,123,2,10,4,2,1,24,2,"8,1",6,L,0.28417073170731705,0.061,0.1708,0.061
8,4,7,0,6,16.40899999999999,14,83,2,5,11,70,17.323999999999987,0.8539999999999996,4.208999999999997,2.1959999999999984,17,4,12,7,86,4,23,11,6,0.5,40,5.5,"6,8,1",6,L,0.20144186046511628,0.2135,0.183,0.1996363636363636
8,4,8,0,8,0.061,1,1,13,114,118,120,6.953999999999994,0.9759999999999995,3.720999999999997,0.9759999999999995,15,5,11,5,29,5,16,5,2,0.5,18,3,"8,6",6,L,0.22274242424242424,0.1525,0.23256249999999998,0.19519999999999998
8,5,9,0,8,0.5489999999999999,4,5,118,1,112,109,0.6099999999999999,43.919999999999966,0.122,0.061,5,19,2,1,6,167,2,1,2,0.5,18,3,8,6,L,0.1719090909090909,0.2628809523809523,0.122,0.183
8,5,10,0,10,67.83200000000039,16,288,88,86,96,89,68.0150000000004,0.183,0.7319999999999998,2.0739999999999985,17,2,3,6,289,2,4,6,3,1,36,3,"10,8",6,L,0.23534602076124567,0.0915,0.183,0.3456666666666665
9,1,1,0,1,24.88799999999998,11,109,81,77,37,76,26.35199999999998,0.488,2.622999999999998,2.439999999999998,18,2,6,9,116,2,10,13,3,0.5,23,3.5,1,6,L,0.22717241379310343,0.244,0.2623,0.18769230769230769
9,1,2,0,10,46.96999999999996,15,216,89,91,95,2,48.00699999999996,1.1589999999999994,0.9149999999999996,2.8669999999999978,19,5,5,7,220,5,5,13,3,0.5,24,3.75,"10,1",6,L,0.21821363636363633,0.2318,0.183,0.22053846153846152
9,2,3,0,1,7.014999999999994,14,27,80,79,25,27,11.101999999999991,2.1959999999999984,3.2329999999999974,0.244,20,5,8,1,54,6,13,1,3,0,16,4,10,6,L,0.2154891304347826,0.3009333333333333,0.2209189189189189,0.26207407407407407
9,2,4,0,10,5.306999999999996,15,23,90,96,55,86,11.345999999999991,2.3179999999999983,1.9519999999999986,0.305,20,6,8,3,55,7,10,3,3,0.5,22,3.25,10,6,L,0.22630999999999998,0.33114285714285707,0.19519999999999998,0.10166666666666667
9,3,5,0,0,0,0,0,11,60,50,29,1.3419999999999992,0.366,1.0369999999999995,0.061,10,3,5,1,11,3,5,1,0,0,19,4.75,0,6,L,0.20991176470588233,0.122,0.2074,0.061
9,3,6,0,5,13.663999999999989,15,66,38,47,15,14,15.676999999999987,5.977999999999995,4.330999999999997,15.127999999999988,20,14,11,17,75,25,13,68,5,0,22,5.5,0,6,L,0.20902666666666664,0.23911999999999997,0.3331538461538461,0.2224705882352941
9,4,7,0,7,7.441999999999994,8,38,23,17,21,44,10.430999999999992,6.709999999999995,2.3179999999999983,2.439999999999998,18,14,7,7,49,23,8,9,6,0.5,41,5.75,7,6,L,0.21287755102040812,0.2917391304347825,0.2897499999999999,0.2711111111111111
9,4,8,0,10,30.316999999999975,18,151,91,33,90,59,30.743999999999975,2.561999999999998,0.9149999999999996,5.123999999999996,19,8,6,13,152,12,8,23,3,0,15,3.75,7,6,L,0.20226315789473684,0.21349999999999997,0.114375,0.22278260869565217
9,5,9,0,7,0.183,1,2,17,15,19,20,0.244,7.136999999999994,2.744999999999998,4.208999999999997,2,17,7,12,3,29,10,20,6,1,72,6,7,6,L,0.23256249999999998,0.23238095238095235,0.2606363636363636,0.21045
9,5,10,0,10,47.03099999999996,17,201,89,86,88,35,47.15299999999996,0.7319999999999998,1.0369999999999995,1.3419999999999992,19,5,4,6,203,5,4,7,3,0.5,23,3.5,"10,7",6,L,0.23228078817733988,0.1464,0.25925,0.1917142857142857
10,1,1,0,9,38.49099999999997,19,162,63,70,14,88,38.55199999999997,3.9649999999999967,4.635999999999997,9.149999999999993,20,13,12,15,163,18,18,36,4,0,17,4.25,0,6,L,0.23651533742331285,0.22027777777777774,0.25755555555555554,0.25416666666666665
10,1,2,0,1,24.33899999999998,17,114,78,75,77,79,24.64399999999998,0.366,1.8909999999999987,0.6099999999999999,18,2,4,3,116,2,5,4,3,1,36,3,1,6,L,0.21244827586206896,0.183,0.3781999999999999,0.1525
10,2,3,0,1,0,0,0,77,74,79,80,1.0979999999999994,2.439999999999998,2.622999999999998,1.585999999999999,8,9,10,7,8,11,11,7,3,1,36,3,1,6,L,0.21170588235294116,0.2218181818181818,0.23845454545454545,0.2265714285714285
10,2,4,0,4,70.76000000000073,11,302,106,100,105,12,71.12600000000073,1.646999999999999,0.366,1.524999999999999,14,5,3,10,305,5,3,13,2,0.5,18,3,"4,1",6,L,0.23319999999999996,0.32939999999999997,0.122,0.11730769230769231
10,3,5,0,3,63.31799999999995,13,267,31,95,120,52,71.18699999999994,2.3179999999999983,0.183,2.3179999999999983,20,7,2,9,298,8,2,12,5,0,14,3.5,"4,1",6,L,0.23888255033557043,0.28974999999999995,0.0915,0.19316666666666665
10,3,6,0,1,0.061,1,1,80,79,39,81,0.427,3.476999999999997,1.4029999999999991,2.622999999999998,3,10,6,8,3,11,6,10,3,0.5,23,3.5,1,6,L,0.19646753246753246,0.2956153846153845,0.19519999999999998,0.2623
10,4,7,0,10,23.362999999999982,19,108,86,89,92,94,23.48499999999998,6.099999999999995,1.0369999999999995,0.244,20,11,2,2,110,19,2,2,3,1,36,3,"10,1",6,L,0.2135,0.3210526315789473,0.5184999999999997,0.122
10,4,8,0,1,1.7079999999999989,5,5,80,76,82,105,1.8299999999999987,0.7929999999999997,0.488,20.251999999999985,7,2,3,16,7,2,4,83,3,0.5,20,2.75,"1,10",6,L,0.19667241379310343,0.4066666666666666,0.122,0.244
10,5,9,0,1,22.874999999999982,19,105,81,83,73,97,22.935999999999982,2.622999999999998,1.1589999999999994,0.244,20,8,6,2,106,8,6,2,3,0.5,20,2.75,"1,10",6,L,0.21637735849056602,0.32787499999999986,0.19316666666666665,0.122
10,5,10,0,10,2.500999999999998,11,15,29,3,36,96,9.088999999999993,4.330999999999997,3.476999999999997,0.061,20,9,9,1,41,15,9,1,3,0,19,4.75,1,6,L,0.2098690476190476,0.2691176470588235,0.3382727272727272,0.16266666666666665
11,1,1,0,1,21.044999999999984,18,87,77,78,83,79,23.179999999999982,1.524999999999999,0.122,7.563999999999994,20,10,1,12,96,12,1,28,3,1,36,3,1,6,L,0.24145833333333333,0.12708333333333333,0.122,0.27014285714285713
11,1,2,0,10,25.92499999999998,17,102,88,90,85,36,26.77899999999998,0.183,6.526999999999995,2.561999999999998,20,1,12,5,109,1,29,6,3,0.5,23,3.5,"10,1",6,L,0.2456788990825688,0.183,0.22506896551724137,0.42699999999999994
11,2,3,0,10,0.7929999999999997,3,3,96,95,61,35,1.2199999999999998,5.001999999999996,2.3789999999999982,2.622999999999998,4,12,6,8,4,22,7,11,3,0,15,3.75,1,6,L,0.21420930232558139,0.22366666666666665,0.3398571428571428,0.2384545454545454
11,2,4,0,1,1.8299999999999987,8,9,80,54,78,74,2.8059999999999983,12.01699999999999,0.061,2.8669999999999978,13,15,1,9,15,45,1,12,3,0.5,22,3.25,1,6,L,0.2582333333333333,0.25781132075471697,0.061,0.23891666666666664
11,3,5,0,6,20.312999999999985,16,99,1,2,8,26,20.373999999999985,7.136999999999994,9.271999999999993,22.935999999999982,17,15,17,16,100,29,28,89,6,0.5,41,5.75,"6,1",6,L,0.20373999999999998,0.24610344827586203,0.33114285714285707,0.2577078651685393
11,3,6,0,1,0,0,0,82,81,55,23,0.8539999999999996,3.3549999999999973,2.683999999999998,5.7339999999999955,4,9,7,12,4,14,10,22,3,0,16,4,6,6,L,0.20097321428571427,0.2396428571428571,0.2683999999999999,0.2606363636363636
11,4,7,0,6,17.018999999999988,18,77,1,8,39,5,17.079999999999988,0.183,9.759999999999993,3.781999999999997,19,1,17,12,78,1,43,16,6,0.5,41,5.75,6,6,L,0.21280152671755723,0.183,0.2269767441860465,0.236375
11,4,8,0,7,18.970999999999986,19,99,17,14,16,80,25.74199999999998,1.0979999999999994,2.8669999999999978,2.8669999999999978,20,4,11,8,124,5,17,8,6,0.5,39,5.25,"7,6",6,L,0.20759677419354838,0.2196,0.1686470588235294,0.3583749999999999
11,5,9,0,7,0,0,0,18,23,17,19,1.8299999999999987,8.051999999999994,1.2809999999999993,0.244,3,18,8,3,3,40,8,3,6,1,72,6,"7,6",6,L,0.2008307692307692,0.20129999999999998,0.160125,0.08133333333333333
11,5,10,0,6,1.2199999999999993,6,6,1,4,11,3,2.4399999999999986,0.8539999999999996,1.0979999999999994,0.061,13,4,5,1,14,4,5,1,6,1,72,6,"6,7",6,L,0.21414893617021274,0.20914285714285713,0.2074,0.061
12,1,1,0,8,19.275999999999986,17,96,113,119,111,112,19.641999999999985,1.2199999999999993,0.6099999999999999,2.0739999999999985,20,6,2,6,100,6,2,8,2,1,24,2,8,6,L,0.19641999999999998,0.20333333333333334,0.305,0.25925
12,1,2,0,5,41.17499999999997,11,192,45,37,21,40,43.675999999999966,0.9149999999999996,7.258999999999994,0.061,16,6,16,1,199,7,36,1,5,0.5,36,5.25,"5,8",6,L,0.21947738693467334,0.1307142857142857,0.20163888888888887,0.061
12,2,3,0,5,0.061,1,1,41,43,42,79,2.8669999999999978,1.8909999999999987,2.9279999999999977,8.051999999999994,10,7,8,13,12,11,9,32,5,0.5,33,4.5,"5,8",6,L,0.18922448979591835,0.1719090909090909,0.3253333333333333,0.251625
12,2,4,0,8,18.848999999999986,18,89,3,118,114,120,35.562999999999974,0.244,2.744999999999998,0.061,20,3,12,1,160,3,17,1,2,0.5,18,3,"8,5",6,L,0.2475533980582524,0.20445054945054944,0.16147058823529412,0.061
12,3,5,0,6,0.061,1,1,6,82,109,77,1.8909999999999987,1.646999999999999,10.735999999999992,7.075999999999994,10,7,16,16,11,7,45,25,6,0,14,3.5,0,6,L,0.19584210526315787,0.2352857142857143,0.23857777777777775,0.28303999999999996
12,3,6,0,9,46.359999999999964,14,196,67,65,72,14,48.92199999999996,1.7079999999999989,0.305,6.465999999999995,20,8,3,11,206,8,3,19,4,0.5,30,4.5,9,6,L,0.23748543689320387,0.21349999999999997,0.10166666666666667,0.3403157894736841
12,4,7,0,9,6.587999999999995,15,31,16,48,68,63,19.824999999999985,10.857999999999992,1.8299999999999987,0.061,20,18,6,1,85,47,6,1,4,0,19,4.75,0,6,L,0.23977227722772274,0.2340408163265306,0.23044444444444442,0.061
12,4,8,0,4,23.362999999999982,11,88,102,97,100,106,23.42399999999998,1.4029999999999991,0.488,5.7339999999999955,12,4,3,11,89,4,3,21,2,1,24,2,4,6,L,0.263191011235955,0.3507499999999999,0.16266666666666665,0.273047619047619
12,5,9,0,7,25.37599999999998,16,134,13,17,39,77,25.43699999999998,6.465999999999995,0.7319999999999998,0.366,17,13,5,4,135,26,5,4,6,0,20,5,4,6,L,0.1884222222222222,0.24869230769230766,0.1464,0.0915
12,5,10,0,4,0,0,0,102,90,2,101,0.9759999999999995,29.157999999999976,11.589999999999991,4.940999999999996,2,17,16,14,3,123,46,20,2,0,13,3.25,0,6,L,0.19007246376811593,0.2354148148148148,0.2519565217391304,0.24705
13,1,1,0,1,34.647999999999975,17,150,83,84,44,13,35.928999999999974,0.6099999999999999,1.7079999999999989,0.6099999999999999,20,3,5,3,155,3,6,3,3,0,17,4.25,0,6,L,0.23179999999999998,0.20333333333333334,0.2846666666666666,0.20333333333333334
13,1,2,0,3,22.996999999999982,18,105,30,57,59,55,28.669999999999977,3.842999999999997,3.1719999999999975,3.598999999999997,20,13,10,10,129,15,15,13,5,0.5,29,4.25,3,6,L,0.22224806201550387,0.2562,0.21146666666666666,0.2768461538461538
13,2,3,0,5,55.875999999999955,16,252,47,46,44,100,57.095999999999954,0.9759999999999995,1.7689999999999988,2.8669999999999978,20,4,7,12,260,4,8,14,5,0.5,32,4.25,"5,3",6,L,0.2196,0.244,0.221125,0.20478571428571427
13,2,4,0,3,0,0,0,78,2,33,74,11.95599999999999,6.953999999999994,0.366,0.305,16,14,2,2,57,30,2,2,5,0,17,4.25,5,6,L,0.19012408759124086,0.23819047619047617,0.18367032967032965,0.122
13,3,5,0,5,0.9759999999999995,3,3,49,13,81,98,6.831999999999995,15.249999999999988,0.305,0.8539999999999996,14,17,2,6,21,61,2,6,5,0,15,3.75,0,6,L,0.27354687499999997,0.25077777777777777,0.1525,0.14233333333333334
13,3,6,0,6,18.543999999999986,19,94,11,6,8,12,25.68099999999998,0.183,1.2809999999999993,0.488,20,1,6,2,131,1,8,2,6,1,72,6,6,6,L,0.19603816793893128,0.183,0.160125,0.244
13,4,7,0,6,35.135999999999974,20,161,58,11,12,9,37.27099999999997,0.183,1.7079999999999989,0.122,20,1,8,1,172,1,11,1,6,0.5,40,5.5,6,6,L,0.21669186046511626,0.183,0.15527272727272726,0.122
13,4,8,0,10,31.597999999999974,15,122,96,86,88,32,33.122999999999976,1.3419999999999992,0.6709999999999998,3.3549999999999973,20,7,2,9,133,7,2,14,3,0.5,23,3.5,"10,6",6,L,0.24904511278195485,0.1917142857142857,0.3354999999999999,0.2396428571428571
13,5,9,0,6,38.55199999999997,19,152,10,6,2,33,42.88299999999997,2.1959999999999984,6.099999999999995,0.7319999999999998,20,11,15,3,174,13,26,3,6,0.5,41,5.75,"6,10",6,L,0.24645402298850572,0.16892307692307693,0.2346153846153846,0.244
13,5,10,0,0,0,0,0,47,66,107,39,5.367999999999996,0.122,0.488,0.366,14,2,2,4,30,2,2,4,0,0,16,4,6,6,L,0.2193653846153846,0.061,0.244,0.0915
14,1,1,0,7,29.401999999999976,18,149,17,13,15,32,32.39099999999998,0.488,1.2199999999999993,9.759999999999993,20,4,6,16,162,4,6,46,6,0.5,41,5.75,7,6,L,0.19994444444444442,0.122,0.20333333333333334,0.21217391304347824
14,1,2,0,10,21.715999999999983,13,99,89,92,95,85,22.386999999999983,0.6099999999999999,0.7319999999999998,1.7079999999999989,18,5,4,4,105,5,4,5,3,1,36,3,"10,7",6,L,0.2132095238095238,0.122,0.183,0.34159999999999996
14,2,3,0,7,21.532999999999983,18,106,15,13,69,22,26.96199999999998,7.563999999999994,0.5489999999999999,0.122,20,16,2,1,125,35,2,1,6,0.5,40,5.5,"7,10",6,L,0.21569599999999997,0.2161142857142857,0.27449999999999997,0.122
14,2,4,0,10,24.64399999999998,17,114,91,49,33,12,26.41299999999998,4.452999999999997,4.147999999999997,1.0979999999999994,20,11,10,3,118,19,16,3,3,0,18,4.5,7,6,L,0.22383898305084743,0.2343684210526316,0.25925,0.3659999999999999
14,3,5,0,7,1.0369999999999995,5,5,18,23,13,15,1.4029999999999996,0.9759999999999995,4.635999999999997,14.029999999999989,8,7,11,16,8,7,18,59,6,1,72,6,7,6,L,0.2286173913043478,0.13942857142857143,0.25755555555555554,0.2377966101694915
14,3,6,0,9,50.20299999999996,17,221,72,70,69,5,50.32499999999996,0.122,1.4029999999999991,1.0979999999999994,18,1,8,4,222,1,9,7,4,0.5,30,4.5,"9,7",6,L,0.22668918918918915,0.122,0.15588888888888888,0.15685714285714286
14,4,7,0,9,0.061,1,1,69,70,39,1,0.6709999999999998,4.574999999999997,20.373999999999985,16.774999999999988,4,14,18,17,4,26,90,69,4,0,19,4.75,7,6,L,0.23449350649350648,0.17596153846153845,0.22637777777777776,0.24311594202898548
14,4,8,0,7,9.759999999999993,15,49,13,14,21,95,13.23699999999999,0.244,14.822999999999988,0.183,20,1,16,2,62,1,73,2,6,0.5,39,5.25,7,6,L,0.2106533333333333,0.20042857142857143,0.20305479452054792,0.0915
14,5,9,0,8,27.266999999999978,18,125,53,1,119,109,36.84399999999997,54.04599999999996,0.9149999999999996,0.183,20,19,5,3,165,233,5,3,2,0,14,3.5,7,6,L,0.22329696969696966,0.23195708154506436,0.183,0.061
14,5,10,0,7,0,0,0,16,13,23,17,1.463999999999999,6.160999999999995,0.122,12.56599999999999,7,15,2,17,9,29,2,51,6,1,72,6,7,6,L,0.20536666666666664,0.21244827586206894,0.061,0.24639215686274507
15,1,1,0,1,20.190999999999985,16,102,77,82,84,80,20.373999999999985,1.2809999999999993,1.8299999999999987,1.2809999999999993,17,11,8,6,103,11,9,6,3,1,36,3,1,6,L,0.19780582524271845,0.11645454545454545,0.20333333333333334,0.2135
15,1,2,0,4,31.902999999999974,18,144,104,106,57,99,34.159999999999975,1.0979999999999994,4.6969999999999965,0.427,20,7,13,2,154,8,22,2,2,0.5,16,2.5,"4,1",6,L,0.2218181818181818,0.13724999999999998,0.2135,0.2135
15,2,3,0,1,19.092999999999986,20,88,78,82,13,84,20.007999999999985,5.001999999999996,2.3789999999999982,0.9759999999999995,20,13,7,4,92,23,10,4,3,0.5,24,3.75,"1,4",6,L,0.2174782608695652,0.2174782608695652,0.23789999999999997,0.24399999999999994
15,2,4,0,4,1.524999999999999,5,6,103,98,28,106,2.134999999999999,1.9519999999999986,5.489999999999996,6.709999999999995,10,6,11,12,13,6,18,23,2,0.5,17,2.75,"4,1",6,L,0.22941304347826083,0.2994545454545454,0.305,0.29173913043478256
15,3,5,0,6,0.061,1,1,11,12,105,57,2.744999999999998,0.061,3.3549999999999973,0.366,11,1,9,3,13,1,15,3,6,0,18,4.5,0,6,L,0.20470192307692306,0.13216666666666665,0.22473684210526315,0.122
15,3,6,0,10,33.244999999999976,18,157,93,89,13,62,35.562999999999974,0.6709999999999998,10.186999999999992,1.1589999999999994,20,5,15,4,166,5,43,4,3,0,16,4,0,6,L,0.21423493975903612,0.13419999999999999,0.23690697674418604,0.28974999999999995
15,4,7,0,3,26.47399999999998,20,136,36,28,25,30,27.876999999999978,0.5489999999999999,1.524999999999999,0.366,20,4,3,2,143,4,3,2,5,1,60,5,3,6,L,0.19494405594405592,0.13724999999999998,0.5083333333333332,0.183
15,4,8,0,9,34.281999999999975,20,155,14,71,64,41,56.668999999999954,0.488,1.0369999999999995,1.646999999999999,20,3,4,5,240,3,4,5,4,0,19,4.75,3,6,L,0.2361208333333333,0.16266666666666665,0.25925,0.3293999999999999
15,5,9,0,7,21.959999999999983,17,85,22,17,16,78,22.996999999999982,0.122,17.750999999999987,0.244,20,1,17,2,91,1,76,2,6,0.5,39,5.25,"7,3",6,L,0.25271428571428567,0.122,0.23356578947368417,0.122
15,5,10,0,3,26.47399999999998,18,128,35,26,33,32,27.937999999999978,2.1349999999999985,1.524999999999999,0.061,20,7,7,1,136,7,8,1,5,1,60,5,"3,7",6,L,0.20542647058823527,0.30499999999999994,0.190625,0.061
16,1,1,0,10,47.94599999999996,18,215,95,85,89,16,49.04399999999996,0.122,2.805999999999998,1.2809999999999993,20,1,9,3,221,1,13,3,3,0.5,24,3.75,10,5,L,0.22191855203619906,0.122,0.21584615384615385,0.42699999999999994
16,1,2,0,5,44.224999999999966,17,188,39,42,2,57,46.237999999999964,1.7079999999999989,5.306999999999996,1.7689999999999988,20,7,11,6,197,9,16,6,5,0,20,5,10,5,L,0.23471065989847714,0.18977777777777777,0.33168749999999997,0.2948333333333333
16,2,3,0,10,0.427,1,1,103,2,26,63,70.57700000000067,14.639999999999988,0.305,0.061,20,19,3,1,279,62,3,1,3,0,17,4.25,0,5,L,0.24054029850746267,0.24716883116883115,0.23245945945945945,0.061
16,2,4,0,8,30.804999999999975,14,122,117,112,14,111,32.63499999999998,1.0979999999999994,1.524999999999999,1.646999999999999,19,5,6,4,127,5,6,5,2,0.5,18,3,8,5,L,0.2569685039370078,0.2196,0.25416666666666665,0.3293999999999999
16,3,5,0,8,10.186999999999992,16,45,118,47,120,113,20.556999999999984,0.5489999999999999,0.122,0.061,20,4,1,1,96,4,1,1,2,0.5,17,2.75,8,5,L,0.23161654135338344,0.13724999999999998,0.122,0.061
16,3,6,0,7,56.058999999999955,14,229,20,17,54,31,57.94999999999995,1.2199999999999993,4.269999999999997,1.4029999999999991,16,6,10,8,231,7,15,8,6,0,21,5.25,8,5,L,0.25086580086580085,0.1742857142857143,0.2846666666666666,0.175375
16,4,7,0,0,0,0,0,64,86,28,25,0.427,1.7079999999999989,0.427,0.9759999999999995,1,6,2,6,1,7,2,6,0,0,17,4.25,0,5,L,0.21996969696969695,0.24399999999999997,0.2135,0.16266666666666665
16,4,8,0,1,29.706999999999976,19,123,79,80,81,78,29.767999999999976,0.244,2.2569999999999983,2.2569999999999983,20,1,9,11,124,1,13,13,3,1,36,3,1,5,L,0.24006451612903223,0.244,0.17361538461538462,0.17361538461538462
17,1,1,0,8,24.82699999999998,17,121,110,119,117,16,29.462999999999976,1.646999999999999,0.366,12.38299999999999,20,4,3,17,137,4,3,54,2,0.5,18,3,8,6,L,0.21505839416058392,0.4117499999999999,0.122,0.2293148148148148
17,1,2,0,5,19.092999999999986,17,96,1,4,65,40,36.23399999999997,0.061,0.244,0.122,20,1,1,2,165,1,1,2,5,0,21,5.25,8,6,L,0.2196,0.061,0.244,0.061
17,2,3,0,1,30.072999999999976,15,142,14,23,18,39,70.69899999999994,0.305,0.366,0.061,20,1,3,1,302,1,3,1,3,0.5,41,5.75,"1,8",6,L,0.23410264900662248,0.305,0.122,0.061
17,2,4,0,8,22.813999999999982,18,92,114,109,119,2,23.72899999999998,2.0129999999999986,1.0979999999999994,2.805999999999998,20,8,4,9,95,10,5,14,2,0.5,18,3,"8,1",6,L,0.24977894736842102,0.20129999999999998,0.21959999999999993,0.20042857142857143
17,3,5,0,1,20.739999999999984,17,84,79,73,84,80,21.776999999999983,0.8539999999999996,0.061,3.598999999999997,20,3,1,10,89,4,1,16,3,1,36,3,"1,8",6,L,0.24468539325842695,0.2135,0.061,0.22493749999999996
17,3,6,0,0,0,0,0,113,3,119,54,0.366,4.574999999999997,0.061,1.524999999999999,5,13,1,11,5,22,1,12,0,0,14,3.5,1,6,L,0.16605555555555554,0.20795454545454545,0.061,0.12708333333333333
17,4,7,0,10,32.87899999999998,19,148,92,91,95,87,33.976999999999975,1.2809999999999993,0.7319999999999998,0.305,20,5,4,2,151,6,5,2,3,1,36,3,"10,1",6,L,0.22501324503311257,0.2135,0.1464,0.1525
17,4,8,0,1,0.244,2,2,73,80,82,75,0.5489999999999999,0.244,0.061,3.659999999999997,5,2,1,11,5,2,1,18,3,1,36,3,"1,10",6,L,0.2033333333333333,0.10166666666666667,0.061,0.20333333333333334
17,5,9,0,10,9.393999999999993,17,41,92,93,96,97,11.83399999999999,0.6709999999999998,1.2809999999999993,2.500999999999998,20,3,7,5,53,4,7,8,3,0.5,20,2.75,"10,1",6,L,0.19449999999999998,0.183,0.22193617021276593,0.31262499999999993
17,5,10,0,1,28.364999999999977,20,136,73,81,82,20,29.462999999999976,0.061,2.744999999999998,3.903999999999997,20,1,6,9,140,1,7,13,3,0.5,24,3.75,"1,10",6,L,0.21044999999999997,0.061,0.39214285714285707,0.3003076923076922
18,1,1,0,7,29.645999999999976,17,155,17,16,19,49,29.706999999999976,2.561999999999998,0.9149999999999996,2.3789999999999982,18,8,6,6,156,11,6,7,6,0.5,40,5.5,7,6,L,0.19042948717948716,0.2329090909090909,0.1525,0.3398571428571428
18,1,2,0,4,44.224999999999966,15,189,102,97,7,5,44.468999999999966,0.244,4.208999999999997,0.7319999999999998,16,3,11,3,190,3,17,3,2,0,16,4,7,6,L,0.23404736842105262,0.08133333333333333,0.2475882352941176,0.244
18,2,3,0,5,56.729999999999954,17,249,42,40,41,52,58.01099999999995,1.646999999999999,1.4029999999999991,0.7319999999999998,20,6,5,3,253,7,7,3,5,0.5,34,4.75,"5,7",6,L,0.22929249011857705,0.23528571428571426,0.2004285714285714,0.244
18,2,4,0,7,0.6709999999999998,3,3,14,21,34,70,5.306999999999997,2.439999999999998,1.0979999999999994,4.391999999999997,12,5,4,13,18,6,5,18,6,0,21,5.25,5,6,L,0.20868421052631578,0.3354999999999999,0.2338333333333333,0.2501
18,3,5,0,5,0.7929999999999997,3,3,45,44,43,37,2.3789999999999987,2.805999999999998,2.439999999999998,5.001999999999996,7,6,13,12,9,7,15,19,5,1,60,5,5,6,L,0.21457017543859647,0.3331538461538461,0.2151944444444444,0.2672380952380952
18,3,6,0,10,48.67799999999996,12,220,86,95,96,26,50.01999999999996,0.061,0.9149999999999996,1.585999999999999,18,1,7,7,228,1,7,7,3,0.5,23,3.5,"10,5",6,L,0.21938596491228068,0.061,0.1307142857142857,0.22657142857142856
18,4,7,0,9,0.061,1,1,2,38,85,11,26.35199999999998,0.122,0.061,0.122,18,1,1,1,101,1,1,1,4,0,20,5,0,6,L,0.23982631578947367,0.0915,0.1491111111111111,0.122
18,4,8,0,2,28.425999999999977,17,123,57,58,52,54,28.852999999999977,1.463999999999999,0.061,0.7929999999999997,18,4,1,4,124,5,1,4,4,1,48,4,2,6,L,0.2326854838709677,0.2928,0.061,0.19824999999999998
18,5,9,0,2,0.122,1,1,60,58,93,89,0.5489999999999999,3.598999999999997,9.088999999999993,2.1959999999999984,4,9,16,7,5,15,42,9,4,0,14,3.5,0,6,L,0.19570833333333332,0.23179999999999998,0.2022037037037037,0.244
18,5,10,0,3,12.07799999999999,19,56,25,32,36,30,20.983999999999984,0.061,0.366,0.061,20,1,3,1,104,1,3,1,5,1,60,5,3,6,L,0.20176923076923076,0.061,0.122,0.061
19,1,1,0,6,44.163999999999966,15,186,4,10,25,62,44.529999999999966,0.061,1.0979999999999994,7.136999999999994,16,1,2,11,187,1,2,23,6,0,21,5.25,0,6,L,0.23812834224598928,0.061,0.5489999999999997,0.3103043478260869
19,1,2,0,5,19.519999999999985,19,104,41,46,44,88,24.33899999999998,1.2809999999999993,4.391999999999997,1.524999999999999,20,5,9,10,124,5,15,10,5,0.5,33,4.5,5,6,L,0.1962822580645161,0.2562,0.29279999999999995,0.1525
19,2,3,0,5,27.205999999999978,20,124,44,41,15,45,28.486999999999977,1.9519999999999986,0.6709999999999998,0.488,20,9,2,2,131,12,2,2,5,0.5,36,5.25,5,6,L,0.21745801526717556,0.16266666666666665,0.3354999999999999,0.244
19,2,4,0,8,31.109999999999975,14,133,110,115,112,109,31.658999999999974,0.366,1.8299999999999987,3.598999999999997,17,2,8,10,136,2,10,18,2,1,24,2,"8,5",6,L,0.23278676470588233,0.183,0.183,0.19994444444444442
19,3,5,0,5,9.027999999999993,15,46,1,41,10,6,22.996999999999982,0.9759999999999995,0.6709999999999998,0.9759999999999995,20,5,3,4,95,5,3,4,5,0.5,41,5.75,"5,8",6,L,0.24207368421052627,0.19519999999999998,0.22366666666666665,0.244
19,3,6,0,8,1.2199999999999993,5,6,120,111,69,21,2.7449999999999983,3.720999999999997,7.441999999999994,8.722999999999994,11,12,14,14,12,15,23,48,2,0,14,3.5,5,6,L,0.22082,0.24806666666666663,0.3235652173913043,0.18172916666666666
19,4,7,0,5,0.427,1,1,115,110,2,116,12.19999999999999,3.537999999999997,18.360999999999986,1.4029999999999991,18,11,15,6,52,16,70,8,5,0.5,18,3,5,6,L,0.23256249999999998,0.18769230769230769,0.2376162790697674,0.175375
19,4,8,0,10,46.115999999999964,15,196,27,95,85,34,52.82599999999996,0.183,0.122,0.183,20,2,1,1,223,2,1,1,3,0,16,4,5,6,L,0.2368878923766816,0.0915,0.122,0.183
19,5,9,0,5,21.898999999999983,18,112,72,38,64,7,28.791999999999977,3.4159999999999973,5.7339999999999955,1.585999999999999,20,10,16,6,130,13,37,6,5,0,19,4.75,0,6,L,0.22147692307692304,0.2627692307692307,0.15497297297297297,0.2643333333333333
19,5,10,0,10,96.99000000000376,14,396,113,92,109,89,99.55200000000376,0.9759999999999995,1.0979999999999994,0.6709999999999998,19,6,5,2,401,7,6,2,3,0,10,2.5,0,6,L,0.2482593516209476,0.13942857142857143,0.183,0.3355
20,1,1,0,4,29.340999999999976,12,127,105,99,101,9,30.072999999999976,0.061,0.061,6.099999999999995,15,1,1,15,130,1,1,30,2,0.5,18,3,4,6,L,0.2313307692307692,0.061,0.061,0.20333333333333334
20,1,2,0,7,18.970999999999986,19,101,19,16,14,24,21.837999999999983,3.598999999999997,4.208999999999997,0.122,20,9,8,1,115,15,12,1,6,1,72,6,"7,4",6,L,0.18989565217391305,0.2399333333333333,0.3507499999999999,0.122
20,2,3,0,4,0.061,1,1,104,108,105,97,0.5489999999999999,1.0979999999999994,0.305,0.305,5,5,2,2,5,5,2,2,2,1,24,2,4,6,L,0.18645283018867925,0.2196,0.1525,0.1525
20,2,4,0,9,48.67799999999996,13,190,72,63,64,44,51.66699999999996,0.305,1.2199999999999993,5.7949999999999955,20,2,6,13,200,2,6,22,4,0.5,29,4.25,"9,4",6,L,0.258335,0.1525,0.20333333333333334,0.26340909090909087
20,3,5,0,4,19.519999999999985,18,107,103,101,104,57,19.580999999999985,0.488,2.0739999999999985,6.8929999999999945,19,5,7,14,108,5,9,32,2,0.5,16,2.5,"4,9",6,L,0.18130555555555555,0.09759999999999999,0.23044444444444442,0.21540625
20,3,6,0,9,4.452999999999997,14,19,63,67,71,1,12.870999999999992,0.305,0.6709999999999998,6.343999999999995,20,3,4,11,55,3,4,19,4,0.5,30,4.5,"9,4",6,L,0.20518181818181816,0.122,0.2218181818181818,0.3338947368421052
20,4,7,0,8,19.275999999999986,11,78,114,118,109,117,19.763999999999985,1.0369999999999995,0.366,0.5489999999999999,15,3,3,2,82,4,3,2,2,1,24,2,"8,9,4",6,L,0.2410243902439024,0.25925,0.122,0.27449999999999997
20,4,8,0,10,0.061,1,1,87,94,96,18,0.6099999999999999,0.244,1.0979999999999994,1.646999999999999,5,2,4,7,5,2,6,11,3,0.5,24,3.75,"10,8",6,L,0.23739166666666664,0.122,0.183,0.14972727272727274
20,5,9,0,8,0,0,0,119,116,27,113,1.4029999999999991,1.585999999999999,13.846999999999989,0.061,5,4,15,1,5,5,52,1,2,0.5,17,2.75,"8,10",6,L,0.22315189873417718,0.2828181818181818,0.24489705882352938,0.2683999999999999
20,5,10,0,10,0.488,4,4,89,60,48,43,0.976,23.301999999999982,3.2939999999999974,1.7689999999999988,7,19,8,8,7,96,10,9,3,0,17,4.25,8,6,L,0.1812403846153846,0.24272916666666663,0.32939999999999997,0.19655555555555554
21,1,1,0,4,24.82699999999998,16,101,102,100,18,101,26.59599999999998,0.122,8.173999999999994,1.8299999999999987,20,1,16,7,105,1,43,7,2,0.5,18,3,4,6,L,0.2532952380952381,0.122,0.19009302325581395,0.2614285714285714
21,1,2,0,6,19.763999999999985,19,96,10,12,52,51,21.593999999999983,1.2199999999999993,6.770999999999995,0.427,20,8,14,3,106,9,32,3,6,0,20,5,4,6,L,0.20371698113207545,0.13555555555555554,0.21159375,0.14233333333333334
21,2,3,0,4,1.7689999999999988,12,12,106,98,105,54,2.134999999999999,0.305,1.8299999999999987,9.088999999999993,15,1,4,12,15,1,4,32,2,0.5,16,2.5,4,6,L,0.17544247787610617,0.160125,0.2358666666666666,0.28403124999999996
21,2,4,0,5,29.218999999999976,18,140,40,45,44,47,30.987999999999975,0.122,1.0979999999999994,2.9889999999999977,20,1,3,11,147,1,3,15,5,1,60,5,"5,4",6,L,0.21080272108843537,0.122,0.36599999999999994,0.19926666666666668
21,3,5,0,4,0.244,1,1,31,103,100,92,18.665999999999986,0.488,0.7319999999999998,4.147999999999997,19,2,6,11,79,2,6,21,2,0,12,3,5,6,L,0.23657391304347825,0.22095555555555554,0.122,0.19752380952380952
21,3,6,0,0,0,0,0,40,41,76,60,0.183,4.391999999999997,2.439999999999998,0.427,2,14,12,2,2,23,13,2,0,0,17,4.25,0,6,L,0.2305324675324675,0.1909565217391304,0.18769230769230769,0.2135
21,4,7,0,3,45.200999999999965,12,187,10,26,88,30,56.546999999999954,0.9149999999999996,23.240999999999982,0.6099999999999999,20,3,18,5,230,3,83,5,5,0,19,4.75,0,6,L,0.2458565217391304,0.30499999999999994,0.28001204819277103,0.122
21,4,8,0,7,31.658999999999974,18,129,13,18,82,23,34.098999999999975,0.6099999999999999,2.0739999999999985,0.8539999999999996,20,3,5,3,141,3,8,3,6,0.5,39,5.25,7,6,L,0.24183687943262408,0.20333333333333334,0.25925,0.2846666666666667
21,5,9,0,7,0.244,1,1,21,18,79,13,2.3179999999999987,2.500999999999998,6.404999999999995,1.585999999999999,8,6,13,7,9,7,27,8,6,0.5,39,5.25,7,6,L,0.2085090909090909,0.35728571428571426,0.2372222222222222,0.19824999999999998
21,5,10,0,6,40.74799999999997,17,179,1,11,4,105,40.80899999999997,0.183,5.916999999999995,0.7319999999999998,18,1,12,2,180,1,28,2,6,0.5,38,5,"6,7",6,L,0.22671666666666665,0.183,0.21132142857142855,0.3659999999999999
22,1,1,0,4,14.456999999999988,18,81,100,97,103,99,14.761999999999988,0.122,0.488,0.6709999999999998,20,1,3,2,84,1,3,3,2,1,24,2,4,6,L,0.17573809523809522,0.122,0.16266666666666665,0.22366666666666665
22,1,2,0,8,18.055999999999987,20,90,111,119,120,3,19.946999999999985,0.305,0.9149999999999996,20.983999999999984,20,2,4,17,97,2,4,95,2,0.5,18,3,"8,4",6,L,0.20563917525773195,0.1525,0.22875,0.22088421052631577
22,2,3,0,8,21.044999999999984,20,94,110,109,118,22,23.301999999999982,2.805999999999998,3.2939999999999974,1.9519999999999986,20,9,10,6,102,13,12,6,2,0.5,18,3,"8,4",6,L,0.22845098039215683,0.21584615384615383,0.27449999999999997,0.32533333333333325
22,2,4,0,0,0,0,0,45,92,67,103,1.2809999999999993,0.9759999999999995,0.7319999999999998,1.524999999999999,8,3,1,8,8,3,1,9,0,0,14,3.5,8,6,L,0.2002833333333333,0.3253333333333333,0.7319999999999998,0.16944444444444445
22,3,5,0,8,0.8539999999999996,6,7,119,6,116,115,2.256999999999999,8.478999999999994,0.061,2.8669999999999978,11,16,1,8,13,34,1,10,2,0.5,18,3,8,6,L,0.20905825242718445,0.24748571428571428,0.22366666666666665,0.22874999999999998
22,3,6,0,7,19.031999999999986,14,85,14,22,19,28,19.092999999999986,2.3179999999999983,1.2199999999999993,3.9649999999999967,15,6,7,8,86,8,8,15,6,0.5,41,5.75,"7,8",6,L,0.22201162790697673,0.28974999999999995,0.1525,0.26433333333333325
22,4,7,0,7,20.373999999999985,19,105,17,20,22,30,20.434999999999985,1.2809999999999993,1.524999999999999,11.406999999999991,20,3,10,16,106,3,13,65,6,0.5,41,5.75,"7,8",6,L,0.2028685714285714,0.4269999999999998,0.11730769230769231,0.1754923076923077
22,4,8,0,8,0.122,1,1,115,116,112,88,0.305,2.683999999999998,1.463999999999999,1.8909999999999987,2,11,6,7,2,15,7,11,2,0.5,15,2.25,"8,7",6,L,0.2152264150943396,0.17893333333333333,0.20914285714285713,0.1719090909090909
22,5,9,0,7,0.8539999999999996,3,3,13,98,56,17,4.879999999999997,7.441999999999994,2.683999999999998,0.305,14,16,10,1,19,31,12,1,6,0,18,4.5,8,6,L,0.21839506172839504,0.24006451612903223,0.22366666666666665,0.305
22,5,10,0,0,0,0,0,111,1,44,9,4.818999999999996,0.488,0.305,0.244,13,3,2,3,24,3,2,3,0,0,19,4.75,0,6,L,0.17753731343283582,0.16266666666666665,0.1525,0.08133333333333333
23,1,1,0,6,22.508999999999983,16,99,10,1,64,4,24.33899999999998,8.234999999999994,1.2199999999999993,0.427,20,16,2,2,107,37,2,2,6,0.5,40,5.5,6,6,L,0.22746728971962615,0.22256756756756754,0.6099999999999999,0.2135
23,1,2,0,2,23.72899999999998,16,104,57,52,53,74,26.16899999999998,0.488,6.465999999999995,1.524999999999999,20,3,13,6,118,3,29,9,4,0.5,27,3.75,"2,6",6,L,0.22177118644067795,0.16266666666666665,0.2229655172413793,0.16944444444444445
23,2,3,0,6,0.061,1,1,5,111,113,84,1.8299999999999987,4.513999999999997,1.3419999999999992,6.465999999999995,8,11,10,14,9,18,12,27,6,0,13,3.25,0,6,L,0.18819148936170213,0.2407894736842105,0.1307142857142857,0.23948148148148146
23,2,4,0,7,33.427999999999976,20,156,14,19,24,28,33.549999999999976,0.427,0.8539999999999996,7.746999999999994,20,2,6,16,157,2,6,46,6,0.5,41,5.75,7,6,L,0.21369426751592355,0.2135,0.14233333333333334,0.16841304347826086
23,3,5,0,7,11.284999999999991,16,58,20,23,22,21,11.345999999999991,0.488,2.9279999999999977,6.465999999999995,17,1,11,13,59,1,16,31,6,1,72,6,7,6,L,0.23815068493150682,0.366,0.2152941176470588,0.19686363636363635
23,3,6,0,4,36.47799999999997,16,157,1,102,108,106,39.46699999999997,1.463999999999999,0.122,1.2809999999999993,20,7,2,7,171,7,2,7,2,0.5,18,3,"4,7",6,L,0.23080116959064326,0.20914285714285713,0.061,0.183
23,4,7,0,4,4.635999999999997,13,23,68,1,105,90,22.142999999999983,0.6099999999999999,0.7929999999999997,0.183,20,3,4,2,96,3,4,2,2,0,15,3.75,7,6,L,0.21495238095238092,0.20333333333333334,0.19824999999999998,0.0915
23,4,8,0,7,31.475999999999974,17,141,24,21,44,13,31.963999999999974,2.683999999999998,7.380999999999994,2.622999999999998,19,11,14,11,143,14,30,14,6,0.5,41,5.75,7,6,L,0.2235244755244755,0.1917142857142857,0.24603333333333333,0.18735714285714283
23,5,9,0,7,29.340999999999976,19,130,17,16,21,18,29.889999999999976,7.685999999999994,0.122,1.1589999999999994,20,12,2,4,134,28,2,4,6,1,72,6,7,6,L,0.2230597014925373,0.27449999999999997,0.061,0.28974999999999995
23,5,10,0,3,49.40999999999996,13,224,30,31,34,29,49.47099999999996,0.488,0.427,0.244,14,1,3,1,225,1,4,1,5,1,60,5,"3,7",6,L,0.2198711111111111,0.488,0.10675,0.244
24,1,1,0,10,20.800999999999984,19,106,91,89,88,90,20.983999999999984,0.061,0.427,7.807999999999994,20,1,2,16,108,1,2,37,3,1,36,3,10,6,L,0.19429629629629627,0.061,0.2135,0.211027027027027
24,1,2,0,4,39.46699999999997,15,174,107,101,102,40,39.71099999999997,2.0129999999999986,0.061,2.805999999999998,17,4,1,10,176,6,1,17,2,0.5,17,2.75,"4,10",6,L,0.2256306818181818,0.3354999999999999,0.061,0.16505882352941176
24,2,3,0,1,16.774999999999988,9,70,83,77,81,84,17.506999999999987,0.244,0.6099999999999999,3.781999999999997,12,2,6,10,73,2,6,16,3,1,36,3,"1,4,10",6,L,0.23982191780821915,0.122,0.10166666666666667,0.236375
24,2,4,0,4,0,0,0,102,108,101,86,0.6709999999999998,0.7929999999999997,0.9759999999999995,7.197999999999994,5,4,2,15,5,4,2,28,2,0.5,15,2.25,"4,1",6,L,0.20600877192982453,0.19824999999999998,0.488,0.25707142857142856
24,3,5,0,4,37.69799999999997,19,162,102,97,106,49,40.44299999999997,0.9759999999999995,0.488,0.5489999999999999,20,5,4,1,173,5,5,1,2,0.5,16,2.5,"4,1",6,L,0.23377456647398842,0.19519999999999998,0.09759999999999999,0.5489999999999999
24,3,6,0,1,0.6099999999999999,3,3,84,69,78,75,2.988999999999998,2.561999999999998,0.061,0.061,14,7,1,1,21,9,1,1,3,0.5,22,3.25,"1,4",6,L,0.16905714285714285,0.2846666666666666,0.061,0.061
24,4,7,0,1,12.07799999999999,19,61,81,2,1,75,12.56599999999999,16.16499999999999,31.414999999999974,0.6709999999999998,20,17,17,5,63,60,137,6,3,0,18,4.5,4,6,L,0.19946031746031745,0.26941666666666664,0.22930656934306567,0.11183333333333333
24,4,8,0,4,11.406999999999991,16,46,96,107,98,97,20.678999999999984,0.183,0.061,2.744999999999998,20,2,1,10,88,2,1,12,2,0.5,15,2.25,4,6,L,0.20007999999999998,0.21228,0.24399999999999997,0.22874999999999998
24,5,9,0,5,16.469999999999988,17,84,46,38,47,3,17.933999999999987,1.8909999999999987,5.855999999999995,3.2329999999999974,20,5,12,10,89,8,24,18,5,0.5,36,5.25,"5,4",6,L,0.20150561797752808,0.23637499999999997,0.244,0.1796111111111111
24,5,10,0,4,7.197999999999994,18,33,14,35,73,30,47.57999999999996,0.427,0.061,0.7319999999999998,20,4,1,2,197,4,1,2,2,0,19,4.75,5,6,L,0.23248251748251747,0.10675,0.061,0.3659999999999999
25,1,1,0,8,51.11799999999996,13,209,119,69,120,109,52.15499999999996,0.8539999999999996,0.305,2.500999999999998,16,3,2,10,212,3,2,15,2,0.5,16,2.5,8,6,L,0.2460141509433962,0.2846666666666666,0.1525,0.16673333333333332
25,1,2,0,7,23.60699999999998,19,123,16,18,89,91,28.181999999999977,1.9519999999999986,7.502999999999994,9.454999999999993,20,5,17,16,144,5,37,49,6,0,18,4.5,8,6,L,0.19570833333333332,0.3903999999999999,0.20278378378378376,0.19295918367346937
25,2,3,0,8,20.556999999999984,18,91,115,109,118,63,21.837999999999983,1.463999999999999,0.7929999999999997,5.428999999999996,20,7,3,13,97,11,3,27,2,0.5,16,2.5,8,6,L,0.2251340206185567,0.1330909090909091,0.2643333333333333,0.20107407407407404
25,2,4,0,6,19.580999999999985,19,91,7,10,35,53,19.641999999999985,1.1589999999999994,6.770999999999995,0.8539999999999996,20,5,15,8,92,5,30,9,6,0,21,5.25,8,6,L,0.2135,0.2318,0.22569999999999998,0.09488888888888888
25,3,5,0,8,7.014999999999994,17,37,114,111,117,31,7.258999999999994,2.3179999999999983,10.674999999999992,3.4159999999999973,19,7,17,10,39,8,52,13,2,0.5,17,2.75,8,6,L,0.21510526315789472,0.20656818181818182,0.20528846153846153,0.2627692307692307
25,3,6,0,5,67.1000000000003,16,294,47,39,102,105,68.86900000000031,1.8299999999999987,2.3789999999999982,5.245999999999996,20,8,9,12,303,11,14,18,5,0,14,3.5,8,6,L,0.22729042904290428,0.16636363636363635,0.16992857142857143,0.2914444444444444
25,4,7,0,1,26.41299999999998,15,124,76,73,80,74,26.59599999999998,2.500999999999998,1.7689999999999988,0.183,17,8,6,2,126,11,7,2,3,1,36,3,"1,8",6,L,0.21107936507936506,0.22736363636363635,0.25271428571428567,0.0915
25,4,8,0,8,1.524999999999999,8,10,112,115,87,9,4.635999999999997,0.7319999999999998,11.589999999999991,0.061,19,3,15,1,23,3,48,1,2,0,13,3.25,1,6,L,0.21893150684931506,0.1586,0.2290175438596491,0.061
25,5,9,0,3,12.38299999999999,20,71,14,56,34,91,181.17000000001204,0.6709999999999998,0.6709999999999998,0.244,20,5,5,2,765,6,5,2,5,0,18,4.5,1,6,L,0.23682352941176468,0.11183333333333333,0.13419999999999999,0.122
25,5,10,0,1,14.395999999999988,17,60,76,81,83,84,15.798999999999987,0.427,0.305,0.488,20,4,3,3,68,4,3,3,3,1,36,3,1,6,L,0.23233823529411762,0.10675,0.10166666666666667,0.16266666666666665
26,1,1,0,6,28.791999999999977,14,140,9,2,49,8,35.196999999999974,0.244,0.122,3.3549999999999973,20,2,1,11,164,2,1,14,6,0.5,40,5.5,6,6,L,0.21461585365853658,0.122,0.122,0.23964285714285713
26,1,2,0,5,30.804999999999975,18,144,15,42,47,43,43.919999999999966,1.9519999999999986,0.5489999999999999,0.7319999999999998,20,5,4,3,191,5,4,3,5,0.5,36,5.25,"5,6",6,L,0.22994764397905756,0.3903999999999999,0.13724999999999998,0.244
26,2,3,0,0,0,0,0,5,99,57,78,0.366,1.2809999999999993,0.6709999999999998,0.244,1,7,2,1,1,7,2,1,0,0,15,3.75,0,6,L,0.199592,0.183,0.3355,0.244
26,2,4,0,7,28.242999999999977,14,127,13,14,18,24,28.303999999999977,1.2809999999999993,0.6709999999999998,4.269999999999997,15,3,3,10,128,4,3,21,6,1,72,6,7,6,L,0.221125,0.32025,0.22366666666666665,0.20333333333333334
26,3,5,0,7,20.556999999999984,18,104,22,13,19,15,21.349999999999984,4.635999999999997,0.122,2.3179999999999983,20,11,1,5,111,17,1,8,6,1,72,6,7,6,L,0.19234234234234235,0.2727058823529412,0.122,0.28974999999999995
26,3,6,0,2,68.32000000000045,14,298,51,9,47,7,68.93000000000045,1.524999999999999,6.709999999999995,1.2809999999999993,17,6,17,4,301,6,39,4,4,0,21,5.25,7,6,L,0.2290033222591362,0.25416666666666665,0.17205128205128203,0.32025
26,4,7,0,7,24.88799999999998,17,94,17,18,93,87,26.53499999999998,4.391999999999997,13.35899999999999,2.3179999999999983,20,10,18,9,105,19,62,12,6,0,18,4.5,0,6,L,0.25271428571428567,0.2311578947368421,0.21546774193548385,0.19316666666666665
26,4,8,0,9,32.39099999999998,16,157,72,64,101,31,33.610999999999976,0.122,12.32199999999999,5.367999999999996,20,1,14,12,161,1,52,21,4,0,15,3.75,0,6,L,0.2087639751552795,0.122,0.23696153846153845,0.25561904761904763
26,5,9,0,5,31.231999999999974,17,147,41,45,42,71,31.597999999999974,0.122,2.1349999999999985,1.463999999999999,18,2,8,5,148,2,8,6,5,0.5,34,4.75,5,6,L,0.2135,0.061,0.266875,0.244
26,5,10,0,7,23.301999999999982,20,118,13,24,112,25,23.362999999999982,4.940999999999996,5.489999999999996,11.77299999999999,20,14,12,14,119,22,25,36,6,0,19,4.75,5,6,L,0.19632773109243695,0.22459090909090906,0.2196,0.32702777777777775
27,1,1,0,9,40.62599999999997,14,164,62,70,61,63,42.08999999999997,4.025999999999997,5.001999999999996,0.244,17,12,13,2,168,20,23,2,4,1,48,4,9,5,L,0.25053571428571425,0.20129999999999998,0.2174782608695652,0.122
27,1,2,0,2,36.35599999999997,13,152,45,55,56,74,39.40599999999997,0.183,0.366,12.44399999999999,20,1,3,16,168,1,3,50,4,0,16,4,9,5,L,0.23455952380952377,0.183,0.122,0.24888
27,2,3,0,10,82.53300000000209,15,366,46,58,87,90,86.43700000000209,1.3419999999999992,0.061,0.061,20,4,1,1,385,4,1,1,3,0,15,3.75,9,5,L,0.2245116883116883,0.3355,0.061,0.061
27,2,4,0,9,5.550999999999996,14,29,67,35,82,18,8.905999999999993,16.469999999999988,6.8319999999999945,1.585999999999999,20,18,16,6,43,59,33,7,4,0,18,4.5,0,5,L,0.22489898989898988,0.2856349206349206,0.19299999999999998,0.22657142857142853
27,3,5,0,5,92.1710000000032,13,354,48,67,12,92,93.33000000000321,1.4029999999999991,1.2809999999999993,1.4029999999999991,18,6,3,7,359,8,4,8,5,0,18,4.5,0,5,L,0.25997214484679665,0.175375,0.3202499999999999,0.175375
27,3,6,0,1,24.33899999999998,15,111,75,79,80,32,25.43699999999998,0.488,0.9759999999999995,8.356999999999994,19,3,4,13,115,3,4,32,3,0.5,23,3.5,1,5,L,0.22119130434782605,0.16266666666666665,0.244,0.26115625
27,4,7,0,0,0,0,0,15,108,99,106,0.5489999999999999,2.1959999999999984,1.2199999999999993,0.427,2,8,5,4,2,14,5,4,0,0.5,18,3,1,5,L,0.2067222222222222,0.15685714285714286,0.244,0.10675
27,4,8,0,5,19.153999999999986,17,97,38,40,42,95,29.88999999999998,0.6099999999999999,0.488,3.2939999999999974,20,5,4,10,146,5,4,14,5,0.5,33,4.5,"5,1",5,L,0.20472602739726026,0.122,0.122,0.2352857142857143
28,1,1,0,3,29.035999999999976,19,140,25,13,18,76,30.865999999999975,9.759999999999993,3.0499999999999976,0.305,20,18,13,1,148,38,15,1,5,0,20,5,0,6,L,0.20855405405405403,0.25684210526315787,0.2033333333333333,0.305
28,1,2,0,10,17.262999999999987,15,82,87,86,42,96,18.970999999999986,0.183,1.646999999999999,0.488,20,2,6,2,90,2,7,2,3,0.5,23,3.5,10,6,L,0.21078888888888886,0.0915,0.2352857142857143,0.244
28,2,3,0,1,27.14499999999998,19,122,77,78,83,43,31.841999999999974,0.5489999999999999,0.427,4.635999999999997,20,2,3,10,143,2,3,15,3,0.5,23,3.5,"1,10",6,L,0.22267132867132866,0.27449999999999997,0.14233333333333334,0.3090666666666666
28,2,4,0,10,5.611999999999996,15,25,61,96,87,85,24.33899999999998,0.061,0.183,0.8539999999999996,20,1,2,3,110,1,2,3,3,0.5,22,3.25,"10,1",6,L,0.20957055214723924,0.22204,0.0915,0.2846666666666667
28,3,5,0,10,0.5489999999999999,1,1,92,89,95,62,2.195999999999999,2.8669999999999978,3.2939999999999974,9.088999999999993,9,11,8,15,10,14,16,41,3,0.5,22,3.25,"10,1",6,L,0.19602247191011235,0.1936086956521739,0.20042857142857143,0.22168292682926827
28,3,6,0,1,1.0369999999999995,3,4,80,54,58,33,1.8299999999999992,12.38299999999999,7.075999999999994,9.515999999999993,8,17,14,16,9,51,32,45,3,0,16,4,10,6,L,0.2082413793103448,0.2451509433962264,0.2248285714285714,0.21146666666666664
28,4,7,0,2,51.54499999999996,19,243,57,50,59,60,52.15499999999996,1.0979999999999994,0.9149999999999996,0.122,20,4,6,1,249,5,8,1,4,1,48,4,"2,10",6,L,0.20945783132530119,0.2196,0.114375,0.122
28,4,8,0,10,10.979999999999992,19,69,89,36,2,3,12.01699999999999,7.563999999999994,11.89499999999999,5.550999999999996,20,13,17,14,75,20,44,16,3,0,20,5,2,6,L,0.16022666666666666,0.3781999999999999,0.2703409090909091,0.3469374999999999
28,5,9,0,2,0.9759999999999995,6,6,55,50,32,15,2.5619999999999985,1.8909999999999987,11.284999999999991,1.4029999999999991,14,8,16,4,15,11,46,4,4,0,19,4.75,0,6,L,0.2185391304347826,0.1719090909090909,0.24532608695652172,0.3507499999999999
28,5,10,0,8,44.346999999999966,17,193,117,118,6,1,46.237999999999964,2.622999999999998,1.8909999999999987,2.1959999999999984,20,10,10,8,198,14,12,12,2,0,16,4,0,6,L,0.2335252525252525,0.18735714285714286,0.15758333333333333,0.183
29,1,1,0,5,27.815999999999978,17,124,46,57,42,16,30.316999999999975,3.3549999999999973,3.598999999999997,0.6709999999999998,20,9,10,2,134,11,15,2,5,0,20,5,0,6,L,0.2262462686567164,0.30499999999999994,0.2399333333333333,0.3355
29,1,2,0,6,48.55599999999996,15,212,10,1,67,28,49.16599999999996,5.001999999999996,0.9149999999999996,2.3179999999999983,19,12,5,8,217,23,6,10,6,0,21,5.25,0,6,L,0.22657142857142853,0.21747826086956518,0.1525,0.2318
29,2,3,0,8,28.242999999999977,19,133,115,119,113,114,29.035999999999976,0.5489999999999999,1.1589999999999994,2.3179999999999983,20,2,5,12,137,3,5,15,2,1,24,2,8,6,L,0.21194160583941604,0.183,0.2318,0.15453333333333333
29,2,4,0,6,12.93199999999999,17,60,6,4,5,8,13.05399999999999,4.025999999999997,0.244,3.3549999999999973,19,9,2,10,62,15,2,16,6,1,72,6,"6,8",6,L,0.21054838709677418,0.26839999999999997,0.122,0.2096875
29,3,5,0,1,20.556999999999984,14,89,80,79,74,82,20.739999999999984,0.488,1.0979999999999994,0.183,16,2,5,1,91,2,6,1,3,1,36,3,"1,6,8",6,L,0.2279120879120879,0.244,0.183,0.183
29,3,6,0,2,0.122,1,1,52,58,53,85,1.2199999999999993,0.183,0.5489999999999999,0.6709999999999998,5,1,4,2,7,1,4,3,4,0.5,27,3.75,"2,1",6,L,0.2457941176470588,0.183,0.13724999999999998,0.22366666666666665
29,4,7,0,4,0.061,1,1,103,51,100,48,1.0369999999999995,3.0499999999999976,0.122,2.0129999999999986,7,7,2,11,7,9,2,15,2,0,13,3.25,0,6,L,0.21015753424657532,0.33888888888888885,0.061,0.13419999999999999
29,4,8,0,10,23.362999999999982,10,105,86,96,92,87,24.39999999999998,0.122,0.305,0.244,14,1,3,1,110,1,3,1,3,1,36,3,10,6,L,0.2218181818181818,0.122,0.10166666666666667,0.244
29,5,9,0,3,26.59599999999998,16,128,32,30,36,14,26.77899999999998,1.8909999999999987,3.1719999999999975,1.7689999999999988,18,6,9,6,130,7,12,6,5,0.5,36,5.25,"3,10",6,L,0.20599230769230767,0.27014285714285713,0.2643333333333333,0.2948333333333333
29,5,10,0,10,3.781999999999997,12,21,87,38,110,111,4.025999999999997,18.299999999999986,8.905999999999993,4.330999999999997,13,17,17,12,22,77,44,16,3,0,12,3,3,6,L,0.1871780821917808,0.23766233766233763,0.2024090909090909,0.27068749999999997
30,1,1,0,4,17.567999999999987,16,80,106,102,103,11,17.811999999999987,1.1589999999999994,2.561999999999998,0.8539999999999996,19,2,7,6,83,3,11,6,2,0.5,18,3,4,6,L,0.2146024096385542,0.3863333333333332,0.2329090909090909,0.14233333333333334
30,1,2,0,8,27.998999999999977,16,141,120,109,116,111,28.974999999999977,0.6709999999999998,1.1589999999999994,2.0129999999999986,20,3,6,7,148,3,7,9,2,1,24,2,"8,4",6,L,0.195777027027027,0.22366666666666665,0.16557142857142856,0.22366666666666665
30,2,3,0,4,0.061,1,1,105,100,106,2,2.1349999999999985,2.8669999999999978,5.489999999999996,0.244,11,5,11,1,15,7,28,1,2,0.5,18,3,"4,8",6,L,0.19423684210526315,0.4095714285714284,0.19607142857142856,0.244
30,2,4,0,8,8.417999999999994,15,43,16,55,118,43,31.902999999999977,0.183,0.061,0.244,20,2,1,2,156,2,1,2,2,0,17,4.25,4,6,L,0.20450641025641025,0.0915,0.061,0.122
30,3,5,0,7,18.848999999999986,20,92,15,14,23,29,18.909999999999986,3.476999999999997,1.463999999999999,4.208999999999997,20,10,6,11,93,13,8,15,6,0.5,41,5.75,"7,4",6,L,0.2033333333333333,0.2674615384615385,0.183,0.28059999999999996
30,3,6,0,4,0,0,0,104,3,107,12,0.488,13.785999999999989,0.366,4.635999999999997,4,16,2,13,4,52,2,22,2,0,16,4,7,6,L,0.20767415730337077,0.24963076923076918,0.183,0.2107272727272727
30,4,7,0,7,14.517999999999988,18,69,13,60,50,44,14.578999999999988,4.269999999999997,3.781999999999997,0.061,19,13,10,1,70,22,13,1,6,0,19,4.75,0,6,L,0.21911199999999997,0.1940909090909091,0.2909230769230769,0.061
30,4,8,0,8,9.881999999999993,17,53,120,113,112,109,10.369999999999992,0.9759999999999995,0.183,1.2809999999999993,20,2,2,6,56,3,2,8,2,1,24,2,8,6,L,0.18517857142857141,0.32533333333333325,0.0915,0.160125
30,5,9,0,7,22.569999999999983,17,105,21,15,13,107,24.27799999999998,0.9759999999999995,6.343999999999995,20.983999999999984,20,2,14,16,114,2,28,85,6,0.5,38,5,"7,8",6,L,0.21296491228070175,0.4879999999999999,0.22657142857142856,0.2468705882352941
30,5,10,0,8,0,0,0,111,113,45,41,0.183,2.744999999999998,3.1719999999999975,6.038999999999995,1,10,12,14,1,18,13,25,2,0,14,3.5,7,6,L,0.2141398601398601,0.1525,0.24399999999999997,0.24155999999999997
31,1,1,0,2,43.00499999999997,20,221,57,58,42,50,43.736999999999966,5.428999999999996,7.8689999999999936,2.2569999999999983,20,13,13,10,223,24,30,14,4,0.5,29,4.25,2,6,L,0.1961300448430493,0.22620833333333332,0.2623,0.1612142857142857
31,1,2,0,3,37.81999999999997,18,161,34,28,29,69,38.12499999999997,4.208999999999997,1.2809999999999993,2.9889999999999977,20,10,7,6,165,14,8,6,5,0.5,34,4.75,"3,2",6,L,0.23106060606060605,0.3006428571428571,0.160125,0.4981666666666665
31,2,3,0,2,29.828999999999976,19,149,58,54,55,15,30.865999999999975,0.6099999999999999,2.1349999999999985,0.366,20,4,6,2,153,4,6,2,4,0.5,30,4.5,"2,3",6,L,0.20173856209150326,0.1525,0.3558333333333333,0.183
31,2,4,0,3,11.77299999999999,18,47,28,31,5,27,12.56599999999999,6.282999999999995,1.7689999999999988,8.783999999999994,20,13,8,16,49,28,8,38,5,0.5,36,5.25,"3,2",6,L,0.2564489795918367,0.22439285714285712,0.221125,0.2311578947368421
31,3,5,0,6,0,0,0,2,5,55,54,1.8299999999999987,0.061,2.9279999999999977,0.488,9,1,11,3,11,1,16,3,6,0,20,5,0,6,L,0.2450338983050847,0.20623809523809522,0.16892307692307693,0.15527272727272726
31,3,6,0,1,15.920999999999987,18,69,76,73,46,82,16.774999999999988,0.305,8.478999999999994,5.550999999999996,20,1,13,10,77,1,27,14,3,0.5,23,3.5,1,6,L,0.21785714285714283,0.305,0.314037037037037,0.39649999999999996
31,4,7,0,2,38.24699999999997,14,182,57,56,3,60,43.12699999999997,0.122,5.550999999999996,4.574999999999997,20,2,15,10,202,2,27,18,4,0.5,30,4.5,"2,1",6,L,0.21349999999999997,0.061,0.20559259259259258,0.25416666666666665
31,4,8,0,1,0,0,0,81,77,80,78,0.9149999999999996,0.061,0.6709999999999998,6.343999999999995,5,1,3,14,5,1,3,29,3,1,36,3,"1,2",6,L,0.22169142857142854,0.061,0.22366666666666665,0.21875862068965515
31,5,9,0,2,0,0,0,59,51,47,14,0.6709999999999998,6.8929999999999945,0.366,9.698999999999993,3,15,2,14,3,42,2,38,4,0,19,4.75,1,6,L,0.21893150684931506,0.1641190476190476,0.183,0.25523684210526315
31,5,10,0,1,30.194999999999975,19,125,80,82,75,76,32.02499999999998,4.025999999999997,1.8909999999999987,0.488,20,10,8,4,131,16,9,4,3,1,36,3,1,6,L,0.2444656488549618,0.25162499999999993,0.2101111111111111,0.122
32,1,1,0,5,18.787999999999986,18,88,3,39,44,42,22.264999999999983,1.646999999999999,0.6709999999999998,0.244,20,6,6,2,104,7,6,2,5,0.5,36,5.25,5,6,L,0.21408653846153844,0.23528571428571426,0.11183333333333333,0.122
32,1,2,0,9,19.763999999999985,18,93,20,65,62,15,23.66799999999998,0.061,2.500999999999998,3.9649999999999967,20,1,7,14,111,1,9,25,4,0,20,5,5,6,L,0.21322522522522522,0.061,0.27788888888888885,0.1586
32,2,3,0,3,16.713999999999988,9,66,33,26,73,9,17.140999999999988,1.2809999999999993,10.247999999999992,1.0979999999999994,13,4,11,4,70,4,43,6,5,0,19,4.75,5,6,L,0.24487142857142855,0.32025,0.23832558139534882,0.183
32,2,4,0,5,26.10799999999998,19,115,43,46,42,65,31.719999999999974,0.5489999999999999,2.561999999999998,0.488,20,4,9,1,141,4,14,1,5,0.5,34,4.75,5,6,L,0.22496453900709218,0.13724999999999998,0.183,0.488
32,3,5,0,1,29.462999999999976,9,124,74,83,78,81,30.438999999999975,0.488,4.269999999999997,0.488,13,3,13,3,129,3,20,3,3,1,36,3,"1,5",6,L,0.23596124031007748,0.16266666666666665,0.2135,0.16266666666666665
32,3,6,0,5,0.305,2,2,39,37,89,47,0.427,0.8539999999999996,3.9649999999999967,3.0499999999999976,3,2,9,10,3,2,17,14,5,0.5,33,4.5,"5,1",6,L,0.20755844155844155,0.3172,0.22543478260869562,0.21553333333333333
32,4,7,0,0,0,0,0,53,54,14,26,0.6709999999999998,0.061,0.7929999999999997,3.720999999999997,3,1,1,13,3,1,1,18,0,0,19,4.75,5,6,L,0.23493243243243242,0.061,0.7929999999999997,0.2067222222222222
32,4,8,0,5,0.488,3,3,38,5,1,10,1.3419999999999996,45.078999999999965,8.661999999999994,11.345999999999991,7,19,14,17,7,188,42,49,5,0.5,41,5.75,5,6,L,0.1837625,0.23950526315789472,0.20623809523809522,0.23155102040816322
32,5,9,0,5,23.72899999999998,19,107,41,47,46,1,24.27799999999998,1.463999999999999,2.0129999999999986,1.1589999999999994,20,7,6,4,111,8,9,4,5,0.5,36,5.25,5,6,L,0.2187207207207207,0.183,0.22366666666666665,0.28974999999999995
32,5,10,0,9,61.73199999999995,14,268,71,67,105,33,63.19599999999995,0.183,12.87099999999999,1.8299999999999987,20,2,16,5,275,2,45,7,4,0,15,3.75,5,6,L,0.22980363636363635,0.0915,0.2860222222222222,0.2614285714285714
33,1,1,0,1,38.97899999999997,15,175,73,83,78,5,39.52799999999997,0.061,0.9759999999999995,4.391999999999997,19,1,4,10,179,1,5,12,3,0.5,24,3.75,1,6,L,0.22082681564245807,0.061,0.19519999999999998,0.3659999999999999
33,1,2,0,3,37.39299999999997,11,143,31,28,34,33,37.63699999999997,0.427,1.4029999999999991,0.5489999999999999,12,3,3,4,144,3,3,4,5,1,60,5,"3,1",6,L,0.26136805555555553,0.14233333333333334,0.46766666666666645,0.13724999999999998
33,2,3,0,1,0,0,0,84,69,80,4,4.269999999999997,3.9649999999999967,0.366,2.561999999999998,10,12,3,10,21,14,3,14,3,0,16,4,3,6,L,0.21573170731707317,0.27449999999999997,0.122,0.183
33,2,4,0,0,0,0,0,19,100,57,14,0.9759999999999995,0.6099999999999999,1.7079999999999989,1.8299999999999987,4,2,7,10,4,2,8,10,0,0,18,4.5,0,6,L,0.257156862745098,0.305,0.21349999999999997,0.18299999999999997
33,3,5,0,7,20.739999999999984,17,85,19,17,21,15,21.227999999999984,1.4029999999999991,0.244,0.9759999999999995,20,5,2,5,89,6,2,7,6,1,72,6,7,6,L,0.23851685393258423,0.2338333333333333,0.122,0.13942857142857143
33,3,6,0,4,36.23399999999997,13,157,1,2,103,101,47.09199999999996,6.465999999999995,0.9149999999999996,1.524999999999999,20,18,7,5,201,30,7,5,2,0,16,4,7,6,L,0.23428855721393033,0.2155333333333333,0.1307142857142857,0.30499999999999994
33,4,7,0,7,1.646999999999999,6,7,19,22,15,81,2.256999999999999,2.439999999999998,4.452999999999997,1.0979999999999994,10,10,14,3,11,11,24,5,6,0.5,39,5.25,7,6,L,0.20258024691358023,0.2296470588235294,0.18554166666666666,0.2196
33,4,8,0,2,62.95199999999995,15,271,49,53,9,3,67.16099999999994,0.488,2.9889999999999977,2.683999999999998,20,3,11,8,287,3,14,8,4,0,20,5,7,6,L,0.23401045296167244,0.16266666666666665,0.2135,0.33549999999999996
33,5,9,0,3,41.72399999999997,15,205,109,2,9,10,58.92599999999996,1.2199999999999993,0.6099999999999999,3.3549999999999973,20,7,3,11,284,7,3,13,5,0.5,38,5,"3,7",6,L,0.20748591549295772,0.17428571428571427,0.20333333333333334,0.25807692307692304
33,5,10,0,7,5.184999999999996,14,23,15,18,23,17,6.7709999999999955,1.0369999999999995,0.7319999999999998,2.0739999999999985,19,5,3,9,30,5,3,11,6,1,72,6,"7,3",6,L,0.18769230769230769,0.2562,0.22447999999999999,0.18854545454545454
34,1,1,0,8,38.12499999999997,18,160,112,119,120,118,38.30799999999997,0.061,0.6709999999999998,1.7689999999999988,19,1,4,6,161,1,4,6,2,1,24,2,8,6,L,0.23793788819875775,0.061,0.16775,0.2948333333333333
34,1,2,0,10,21.532999999999983,19,108,14,87,88,89,29.95099999999998,2.3789999999999982,2.2569999999999983,0.061,20,10,8,1,148,10,11,1,3,0.5,24,3.75,"10,8",6,L,0.20237162162162162,0.2379,0.2051818181818182,0.061
34,2,3,0,2,30.560999999999975,14,144,52,51,30,18,30.682999999999975,0.7319999999999998,8.844999999999994,1.7689999999999988,15,2,13,8,145,2,39,9,4,0,19,4.75,"10,8",6,L,0.21160689655172413,0.366,0.2267948717948718,0.19655555555555554
34,2,4,0,5,0.061,1,1,37,48,43,119,10.613999999999992,0.305,0.061,1.585999999999999,16,4,1,7,41,4,1,8,5,0.5,32,4.25,5,6,L,0.25799082568807336,0.07625,0.061,0.19824999999999998
34,3,5,0,10,12.32199999999999,13,60,96,90,93,91,12.38299999999999,1.0369999999999995,1.8909999999999987,2.0739999999999985,14,4,7,10,61,5,9,17,3,1,36,3,"10,5",6,L,0.20299999999999999,0.2074,0.2101111111111111,0.122
34,3,6,0,5,6.343999999999995,14,37,14,13,49,54,23.60699999999998,21.715999999999983,0.061,0.122,20,19,1,1,98,100,1,1,5,0,20,5,10,6,L,0.2551926605504587,0.21671052631578946,0.17145945945945945,0.122
34,4,7,0,3,17.262999999999987,16,85,36,35,30,58,19.092999999999986,1.2199999999999993,0.244,0.305,20,5,2,1,93,6,2,1,5,0.5,34,4.75,"3,10",6,L,0.2053010752688172,0.20333333333333334,0.122,0.305
34,4,8,0,10,0.8539999999999996,6,6,85,87,96,39,3.6599999999999975,1.524999999999999,1.0979999999999994,3.1109999999999975,18,5,6,6,19,6,6,9,3,0.5,23,3.5,"10,3",6,L,0.22286138613861384,0.2051818181818182,0.183,0.3456666666666666
34,5,9,0,0,0,0,0,42,69,108,88,0.183,5.672999999999996,3.598999999999997,0.427,1,14,14,3,1,23,21,3,0,0,14,3.5,3,6,L,0.1979622641509434,0.24665217391304345,0.17138095238095238,0.14233333333333334
34,5,10,0,3,15.371999999999987,20,76,113,4,26,56,42.33399999999997,7.502999999999994,0.6099999999999999,0.122,20,19,3,1,204,42,3,1,5,0,17,4.25,0,6,L,0.20751960784313725,0.17864285714285713,0.20333333333333334,0.122
35,1,1,0,8,40.50399999999997,17,172,114,120,112,2,41.41899999999997,0.122,1.646999999999999,1.2809999999999993,20,1,5,6,178,1,8,6,2,0.5,18,3,8,6,L,0.23269101123595504,0.122,0.205875,0.2135
35,1,2,0,1,7.136999999999994,13,28,14,19,75,76,21.959999999999983,0.305,0.7319999999999998,0.6099999999999999,20,2,3,3,90,2,3,3,3,0,18,4.5,8,6,L,0.24399999999999997,0.1525,0.24399999999999997,0.20333333333333334
35,2,3,0,1,19.275999999999986,18,105,83,84,78,2,20.068999999999985,3.1109999999999975,1.1589999999999994,8.051999999999994,20,13,6,15,108,17,6,38,3,0.5,24,3.75,"1,8",6,L,0.18582407407407406,0.18299999999999997,0.19316666666666665,0.21189473684210525
35,2,4,0,8,29.523999999999976,20,143,110,115,109,24,31.231999999999974,0.427,2.683999999999998,2.9889999999999977,20,5,11,9,150,5,14,10,2,0.5,18,3,"8,1",6,L,0.2082133333333333,0.0854,0.1917142857142857,0.29889999999999994
35,3,5,0,1,10.491999999999992,19,63,107,16,18,104,44.712999999999965,15.554999999999987,0.9149999999999996,0.244,20,19,4,4,195,71,5,4,3,0,16,4,8,6,L,0.22929743589743587,0.2190845070422535,0.183,0.061
35,3,6,0,8,18.360999999999986,15,80,113,111,114,60,21.837999999999983,0.183,1.524999999999999,12.13899999999999,20,3,7,16,97,3,7,48,2,0.5,16,2.5,8,6,L,0.2251340206185567,0.061,0.21785714285714286,0.2528958333333333
35,4,7,0,8,0.061,1,1,114,20,82,16,4.6969999999999965,0.122,2.561999999999998,3.476999999999997,12,1,8,10,13,1,11,14,2,0,17,4.25,0,6,L,0.21604166666666666,0.122,0.23290909090909087,0.24835714285714286
35,4,8,0,6,8.600999999999994,6,32,10,4,5,6,8.844999999999994,2.622999999999998,1.0369999999999995,0.061,8,7,2,1,34,10,2,1,6,1,72,6,6,6,L,0.2601470588235294,0.2622999999999999,0.5184999999999998,0.061
35,5,9,0,6,4.391999999999997,12,22,2,10,4,11,4.879999999999997,0.6099999999999999,0.122,9.759999999999993,15,3,1,16,26,3,1,48,6,1,72,6,6,6,L,0.23065624999999998,0.19570833333333332,0.122,0.2033333333333333
35,5,10,0,3,17.262999999999987,18,77,26,36,29,34,18.421999999999986,1.0369999999999995,1.0979999999999994,2.439999999999998,20,5,6,9,81,5,8,12,5,1,60,5,"3,6",6,L,0.22743209876543208,0.2074,0.13724999999999998,0.20333333333333334
36,1,1,0,3,28.303999999999977,16,122,32,30,27,33,29.889999999999976,0.8539999999999996,1.8299999999999987,1.3419999999999992,20,4,10,6,132,4,14,7,5,1,60,5,3,5,L,0.2264393939393939,0.2135,0.1307142857142857,0.1917142857142857
36,1,2,0,5,26.83999999999998,16,125,43,12,37,53,35.501999999999974,3.720999999999997,0.244,2.1349999999999985,20,10,4,8,157,11,4,9,5,0,20,5,3,5,L,0.2261273885350318,0.3382727272727272,0.061,0.2372222222222222
36,2,3,0,4,27.693999999999978,17,118,104,13,101,105,27.754999999999978,1.2199999999999993,0.7319999999999998,0.488,18,1,3,2,119,1,3,2,2,0.5,18,3,"4,3",5,L,0.233235294117647,1.2199999999999993,0.244,0.244
36,2,4,0,3,23.362999999999982,17,90,35,33,28,77,24.70499999999998,0.366,1.0979999999999994,3.3549999999999973,20,1,5,9,100,1,6,14,5,0.5,33,4.5,"3,4",5,L,0.24705,0.366,0.183,0.23964285714285713
36,3,5,0,9,48.31199999999996,20,213,67,9,66,8,48.49499999999996,1.8909999999999987,1.7079999999999989,1.3419999999999992,20,7,6,4,214,9,8,4,4,0,20,5,"3,4",5,L,0.22661214953271025,0.2101111111111111,0.2135,0.3354999999999999
36,3,6,0,4,0,0,0,98,108,53,51,0.183,1.2809999999999993,4.147999999999997,0.7929999999999997,3,6,11,3,3,6,19,3,2,0,12,3,0,5,L,0.19080232558139534,0.2135,0.21831578947368419,0.2643333333333333
36,4,7,0,8,56.668999999999954,14,244,2,111,117,118,58.68199999999995,0.183,2.500999999999998,0.488,20,1,7,3,255,1,15,3,2,0.5,18,3,8,5,L,0.23012549019607842,0.183,0.16673333333333332,0.16266666666666665
36,4,8,0,2,86.80300000000258,15,386,55,108,44,53,87.04700000000258,2.805999999999998,0.244,0.9759999999999995,17,11,1,5,388,13,1,5,4,0,15,3.75,8,5,L,0.22434793814432988,0.21584615384615385,0.244,0.19519999999999998
37,1,1,0,5,30.316999999999975,17,148,46,38,58,53,32.14699999999998,0.366,4.025999999999997,4.391999999999997,20,2,9,11,159,2,14,16,5,0,18,4.5,0,5,L,0.2021823899371069,0.183,0.2875714285714285,0.27449999999999997
37,1,2,0,3,25.80299999999998,19,130,31,29,36,30,29.096999999999976,2.3179999999999983,0.427,0.061,20,10,2,1,142,13,2,1,5,1,60,5,3,5,L,0.20490845070422534,0.17830769230769228,0.2135,0.061
37,2,3,0,10,24.27799999999998,18,110,88,91,85,45,24.76599999999998,1.463999999999999,1.585999999999999,3.1109999999999975,20,8,7,12,113,11,8,16,3,0.5,23,3.5,"10,3",5,L,0.21916814159292033,0.1330909090909091,0.19824999999999998,0.19443749999999999
37,2,4,0,3,6.221999999999995,13,30,18,15,32,20,16.591999999999988,11.345999999999991,0.305,0.9149999999999996,20,15,1,3,82,36,1,3,5,0.5,41,5.75,"3,10",5,L,0.2196,0.3151666666666666,0.305,0.30499999999999994
37,3,5,0,3,0.183,1,1,27,3,6,12,8.051999999999994,7.319999999999994,14.761999999999988,5.550999999999996,18,19,16,14,33,31,58,25,5,0.5,41,5.75,"3,10",5,L,0.22347663551401867,0.2361290322580645,0.2545172413793103,0.22204
37,3,6,0,10,11.83399999999999,17,57,13,23,88,86,40.50399999999997,0.061,0.122,0.6709999999999998,20,1,1,6,196,1,1,6,3,0,18,4.5,3,5,L,0.19882547169811318,0.2054736842105263,0.122,0.11183333333333333
37,4,7,0,9,78.81200000000166,11,331,61,67,64,63,81.92300000000166,0.488,2.683999999999998,2.2569999999999983,20,1,8,7,343,1,11,9,4,1,48,4,"9,3",5,L,0.23884256559766762,0.488,0.24399999999999997,0.25077777777777777
37,4,8,0,3,12.26099999999999,16,59,25,36,94,88,13.17599999999999,1.646999999999999,17.811999999999987,3.0499999999999976,18,6,16,10,61,8,81,12,5,0,16,4,9,5,L,0.3261153846153846,0.21627272727272726,0.21591366906474818,0.2541666666666666
38,1,1,0,10,23.118999999999982,18,111,91,88,93,33,23.85099999999998,1.9519999999999986,0.8539999999999996,1.646999999999999,20,6,3,6,113,7,3,8,3,0.5,23,3.5,10,6,L,0.21107079646017698,0.2788571428571428,0.2846666666666666,0.205875
38,1,2,0,9,33.061999999999976,15,124,65,68,62,5,35.074999999999974,1.8909999999999987,1.585999999999999,6.282999999999995,20,7,8,11,133,9,10,21,4,0.5,30,4.5,"9,10",6,L,0.26372180451127814,0.2101111111111111,0.1586,0.2991904761904762
38,2,3,0,6,30.804999999999975,15,136,11,30,52,9,30.865999999999975,4.391999999999997,0.122,3.3549999999999973,16,12,1,10,137,21,1,17,6,0,21,5.25,"9,10",6,L,0.2252992700729927,0.20914285714285713,0.122,0.1973529411764706
38,2,4,0,10,0.061,1,1,90,89,88,17,0.6099999999999999,0.5489999999999999,4.391999999999997,7.746999999999994,4,4,14,16,4,4,24,30,3,0.5,24,3.75,10,6,L,0.19997391304347825,0.13724999999999998,0.18299999999999997,0.2582333333333333
38,3,5,0,10,0.427,3,3,92,88,60,17,0.488,3.1109999999999975,6.465999999999995,16.591999999999988,4,10,15,16,4,11,26,78,3,0,16,4,0,6,L,0.20956451612903224,0.2828181818181818,0.24869230769230768,0.2127179487179487
38,3,6,0,5,60.87799999999995,15,247,37,38,40,11,62.70799999999995,0.6709999999999998,2.3179999999999983,0.427,20,5,10,1,260,5,12,1,5,0.5,36,5.25,5,6,L,0.24118461538461536,0.13419999999999999,0.19316666666666665,0.427
38,4,7,0,5,17.750999999999987,20,82,48,80,3,2,19.153999999999986,13.48099999999999,2.9889999999999977,15.981999999999987,20,18,7,16,85,53,9,63,5,0,20,5,0,6,L,0.2253411764705882,0.2543584905660377,0.3321111111111111,0.2536825396825396
38,4,8,0,3,23.179999999999982,20,112,36,32,96,52,25.07099999999998,1.585999999999999,6.282999999999995,4.269999999999997,20,9,14,12,122,12,32,21,5,0,17,4.25,0,6,L,0.2055,0.13216666666666665,0.19634374999999998,0.2033333333333333
38,5,9,0,3,48.18999999999996,12,226,33,25,95,9,48.43399999999996,0.061,5.428999999999996,1.2199999999999993,15,1,10,3,229,1,24,4,5,0,19,4.75,0,6,L,0.21150218340611351,0.061,0.22620833333333332,0.305
38,5,10,0,7,23.48499999999998,17,107,14,18,23,38,23.54599999999998,1.2809999999999993,0.6099999999999999,10.003999999999992,18,4,2,15,108,7,2,40,6,0.5,41,5.75,7,6,L,0.2180185185185185,0.183,0.30499999999999994,0.2501
39,1,1,0,9,20.129999999999985,13,95,66,61,9,1,20.190999999999985,6.343999999999995,5.611999999999996,0.6709999999999998,14,14,12,3,96,29,20,3,4,0,20,5,0,6,L,0.21032291666666664,0.21875862068965515,0.2805999999999999,0.22366666666666665
39,1,2,0,4,15.920999999999987,16,68,103,100,25,97,16.28699999999999,0.244,1.2809999999999993,0.061,19,1,1,1,71,1,1,1,2,0.5,17,2.75,4,6,L,0.2293943661971831,0.244,1.2809999999999993,0.061
39,2,3,0,3,24.76599999999998,20,116,35,36,9,1,25.37599999999998,1.646999999999999,3.2329999999999974,0.366,20,4,10,1,120,4,14,1,5,0,22,5.5,4,6,L,0.21146666666666664,0.4117499999999998,0.23092857142857143,0.366
39,2,4,0,4,0,0,0,107,15,24,51,0.7319999999999998,11.95599999999999,2.500999999999998,1.7079999999999989,5,16,9,5,6,49,12,5,2,0,18,4.5,0,6,L,0.20098717948717948,0.23762686567164176,0.20646153846153845,0.3415999999999999
39,3,5,0,4,22.020999999999983,18,111,104,102,98,101,22.325999999999983,2.3179999999999983,0.6709999999999998,0.061,20,10,5,1,113,12,6,1,2,1,24,2,4,6,L,0.19757522123893803,0.19316666666666665,0.11183333333333333,0.061
39,3,6,0,1,12.19999999999999,16,59,73,44,74,20,13.17599999999999,10.491999999999992,0.244,5.489999999999996,20,15,2,14,65,38,2,29,3,0,17,4.25,4,6,L,0.20270769230769228,0.2761052631578947,0.122,0.18931034482758619
39,4,7,0,4,1.463999999999999,7,9,98,30,104,73,2.134999999999999,7.502999999999994,13.907999999999989,0.122,11,16,16,1,13,38,65,1,2,0,12,3,0,6,L,0.20821333333333333,0.1936086956521739,0.21396923076923074,0.122
39,4,8,0,8,24.64399999999998,19,104,115,113,41,117,25.68099999999998,0.366,1.9519999999999986,3.2939999999999974,20,5,2,10,109,5,2,15,2,0.5,17,2.75,8,6,L,0.23560550458715593,0.0732,0.9759999999999995,0.2196
39,5,9,0,5,38.18599999999997,20,163,39,40,48,45,38.67399999999997,1.1589999999999994,1.7689999999999988,0.488,20,3,7,4,167,3,8,5,5,1,60,5,"5,8",6,L,0.23158083832335327,0.38633333333333325,0.221125,0.09759999999999999
39,5,10,0,0,0,0,0,66,65,8,1,4.391999999999997,0.9149999999999996,0.488,3.537999999999997,13,6,5,12,21,6,6,17,0,0,20,5,5,6,L,0.238695652173913,0.1525,0.08133333333333333,0.20811764705882352
40,1,1,0,2,31.658999999999974,20,133,58,50,55,51,33.549999999999976,0.244,3.1109999999999975,2.3179999999999983,20,1,7,7,142,1,8,9,4,1,48,4,2,6,L,0.23626760563380278,0.244,0.3888749999999999,0.25755555555555554
40,1,2,0,7,27.998999999999977,14,131,17,26,21,20,34.342999999999975,1.0369999999999995,0.8539999999999996,1.4029999999999991,20,3,4,4,158,3,4,4,6,0.5,41,5.75,"7,2",6,L,0.21736075949367087,0.3456666666666667,0.2135,0.35074999999999995
40,2,3,0,2,0.061,1,1,53,60,111,59,0.5489999999999999,3.720999999999997,0.9759999999999995,0.366,5,11,3,3,5,20,4,3,4,0.5,26,3.5,2,6,L,0.2147887323943662,0.18605,0.244,0.122
40,2,4,0,9,39.52799999999997,18,175,63,61,62,45,40.80899999999997,1.8299999999999987,0.122,2.9889999999999977,20,4,1,10,183,7,1,12,4,0.5,29,4.25,"9,2",6,L,0.22299999999999998,0.26142857142857134,0.122,0.24908333333333332
40,3,5,0,2,20.861999999999984,19,98,52,53,58,19,21.227999999999984,0.7929999999999997,1.585999999999999,8.478999999999994,20,3,5,13,100,3,7,31,4,0.5,30,4.5,"2,9",6,L,0.21228,0.2643333333333333,0.22657142857142853,0.273516129032258
40,3,6,0,9,0.9759999999999995,7,8,63,61,11,6,2.988999999999998,5.7339999999999955,1.524999999999999,12.87099999999999,12,11,6,13,14,23,9,53,4,0,20,5,2,6,L,0.16576086956521738,0.2196,0.16944444444444443,0.24284905660377357
40,4,7,0,7,13.724999999999989,13,55,14,17,18,24,16.16499999999999,2.0739999999999985,0.9149999999999996,0.305,20,6,5,3,67,8,5,3,6,1,72,6,"7,2",6,L,0.2412686567164179,0.25925,0.183,0.10166666666666667
40,4,8,0,2,0.366,4,4,56,54,5,6,3.5989999999999975,0.305,8.295999999999994,0.5489999999999999,14,1,15,3,24,1,34,3,4,0,20,5,7,6,L,0.20968749999999997,0.305,0.24399999999999997,0.183
40,5,9,0,10,24.33899999999998,11,116,93,94,86,91,24.76599999999998,2.744999999999998,0.7319999999999998,3.781999999999997,14,5,4,11,120,5,4,16,3,1,36,3,"10,7",6,L,0.2063833333333333,0.5489999999999998,0.183,0.236375
40,5,10,0,0,0,0,0,27,21,13,108,4.6969999999999965,0.427,2.622999999999998,5.7339999999999955,10,1,12,14,19,1,19,24,0,0,19,4.75,10,6,L,0.20914285714285713,0.427,0.13805263157894737,0.2389166666666666
41,1,1,0,7,18.848999999999986,18,93,17,13,22,24,19.763999999999985,10.125999999999992,2.683999999999998,3.842999999999997,20,15,9,9,95,48,10,10,6,1,72,6,7,6,L,0.2080421052631579,0.21095833333333333,0.26839999999999997,0.38429999999999986
41,1,2,0,3,65.08700000000007,14,258,36,29,6,35,66.24600000000008,0.5489999999999999,1.7689999999999988,0.061,20,5,5,1,265,5,6,1,5,0.5,36,5.25,"3,7",6,L,0.24998490566037734,0.1098,0.2948333333333333,0.061
41,2,3,0,7,28.974999999999977,19,125,23,66,73,16,29.035999999999976,8.783999999999994,1.0369999999999995,0.366,20,14,5,2,126,32,5,3,6,0,19,4.75,3,6,L,0.23044444444444442,0.27449999999999997,0.20739999999999997,0.122
41,2,4,0,3,3.476999999999997,15,24,30,36,26,29,5.977999999999995,4.147999999999997,0.122,2.1959999999999984,20,10,1,7,33,14,1,9,5,1,60,5,3,6,L,0.20438961038961037,0.29628571428571426,0.122,0.244
41,3,5,0,4,24.94899999999998,20,104,108,106,105,102,25.43699999999998,0.122,1.646999999999999,0.183,20,1,7,1,108,1,9,1,2,1,24,2,"4,3",6,L,0.23552777777777775,0.122,0.183,0.183
41,3,6,0,3,22.813999999999982,20,104,29,25,36,31,22.874999999999982,0.7319999999999998,0.061,2.0129999999999986,20,1,1,7,105,2,1,7,5,1,60,5,"3,4",6,L,0.21785714285714283,0.366,0.061,0.28757142857142853
41,4,7,0,5,77.53100000000151,11,306,72,47,66,23,78.69000000000152,0.366,0.427,0.183,13,2,1,1,309,2,1,1,5,0,19,4.75,"3,4",6,L,0.25466019417475727,0.183,0.427,0.183
41,4,8,0,6,0,0,0,1,5,7,10,1.9519999999999986,0.183,1.3419999999999992,1.2199999999999993,7,1,6,7,7,1,6,10,6,1,72,6,6,6,L,0.22889523809523807,0.10457142857142857,0.22366666666666665,0.122
41,5,9,0,6,0.366,2,2,1,2,10,11,0.427,7.380999999999994,2.1349999999999985,2.622999999999998,3,16,8,8,3,35,10,9,6,1,72,6,6,6,L,0.22935999999999998,0.2187073170731707,0.2051818181818182,0.29144444444444445
41,5,10,0,3,67.22200000000032,11,272,13,53,73,25,83.50900000000031,0.305,0.122,1.7689999999999988,20,2,1,5,330,2,1,6,5,0,18,4.5,6,6,L,0.2530575757575757,0.1525,0.122,0.2948333333333333
42,1,1,0,10,18.116999999999987,16,97,95,93,91,92,18.543999999999986,0.244,0.7319999999999998,3.2939999999999974,18,3,2,9,99,3,3,19,3,1,36,3,10,6,L,0.1873131313131313,0.08133333333333333,0.244,0.1733684210526316
42,1,2,0,5,17.933999999999987,13,89,40,47,73,11,18.848999999999986,5.184999999999996,1.9519999999999986,1.7079999999999989,15,9,8,7,92,18,11,8,5,0,19,4.75,10,6,L,0.20488043478260867,0.2880555555555555,0.17745454545454545,0.2135
42,2,3,0,4,42.27299999999997,17,193,102,97,7,62,43.736999999999966,2.439999999999998,4.391999999999997,2.3789999999999982,20,9,11,7,201,12,18,10,2,0,14,3.5,10,6,L,0.21759701492537312,0.2033333333333333,0.24399999999999997,0.2379
42,2,4,0,10,2.1959999999999984,14,17,86,85,53,57,3.293999999999998,4.330999999999997,3.842999999999997,0.5489999999999999,20,13,10,4,25,21,15,4,3,0,14,3.5,0,6,L,0.17739795918367346,0.20251999999999998,0.18299999999999997,0.13724999999999998
42,3,5,0,3,23.057999999999982,15,114,27,18,14,28,23.118999999999982,3.4159999999999973,13.11499999999999,0.244,16,9,15,3,115,12,47,3,5,0,22,5.5,0,6,L,0.20103478260869564,0.2846666666666666,0.2790425531914893,0.08133333333333333
42,3,6,0,2,23.54599999999998,20,111,56,59,57,11,23.66799999999998,2.0739999999999985,1.3419999999999992,3.3549999999999973,20,5,5,13,112,6,5,25,4,0.5,30,4.5,2,6,L,0.21132142857142855,0.3456666666666666,0.26839999999999997,0.13419999999999999
42,4,7,0,2,0,0,0,57,13,90,15,0.9759999999999995,7.807999999999994,13.17599999999999,5.123999999999996,3,15,16,15,4,34,67,30,4,0,19,4.75,0,6,L,0.20472602739726026,0.2296470588235294,0.19665671641791044,0.1708
42,4,8,0,8,19.092999999999986,20,107,113,119,12,31,19.153999999999986,0.122,3.781999999999997,1.9519999999999986,20,1,9,2,108,1,14,2,2,0,15,3.75,0,6,L,0.17735185185185184,0.122,0.27014285714285713,0.9759999999999995
42,5,9,0,2,13.724999999999989,16,80,58,47,88,55,17.323999999999987,12.01699999999999,0.5489999999999999,0.427,20,16,2,2,95,49,2,2,4,0,16,4,0,6,L,0.1823578947368421,0.24524489795918364,0.27449999999999997,0.2135
42,5,10,0,9,45.688999999999965,20,195,72,70,34,80,47.76299999999996,4.086999999999997,0.488,3.903999999999997,20,11,2,13,204,15,2,19,4,0,16,4,0,6,L,0.23413235294117646,0.27246666666666663,0.244,0.2054736842105263
43,1,1,0,9,25.43699999999998,19,117,72,1,3,63,26.16899999999998,0.9759999999999995,5.062999999999996,0.6099999999999999,20,1,12,4,119,2,18,4,4,0,20,5,0,6,L,0.21990756302521006,0.48799999999999993,0.28127777777777774,0.1525
43,1,2,0,7,25.07099999999998,16,123,17,47,14,56,25.19299999999998,6.8319999999999945,4.574999999999997,1.3419999999999992,17,13,12,3,124,28,22,3,6,0,21,5.25,0,6,L,0.20316935483870965,0.24399999999999997,0.20795454545454545,0.4473333333333332
43,2,3,0,10,23.60699999999998,12,119,93,15,94,96,23.97299999999998,16.28699999999999,2.0129999999999986,1.0369999999999995,13,17,7,6,120,78,9,6,3,0.5,24,3.75,10,6,L,0.19977499999999998,0.20880769230769228,0.22366666666666665,0.17283333333333334
43,2,4,0,8,25.55899999999998,19,125,115,118,113,112,25.68099999999998,1.1589999999999994,3.2939999999999974,0.427,20,6,11,3,126,7,16,3,2,1,24,2,"8,10",6,L,0.20381746031746031,0.16557142857142856,0.205875,0.14233333333333334
43,3,5,0,9,0.061,1,1,14,65,68,62,8.905999999999993,0.061,0.244,0.183,15,1,3,2,38,1,3,2,4,0.5,30,4.5,9,6,L,0.2269903846153846,0.2135,0.183,0.0915
43,3,6,0,4,36.96599999999997,10,161,105,104,108,1,37.20999999999997,0.6709999999999998,2.744999999999998,0.366,12,5,8,2,163,5,11,2,2,0.5,18,3,"4,9",6,L,0.22828220858895704,0.13419999999999999,0.24954545454545454,0.183
43,4,7,0,6,16.530999999999988,20,80,11,2,4,39,18.055999999999987,0.5489999999999999,10.552999999999992,1.2199999999999993,20,3,16,6,87,5,45,7,6,0.5,41,5.75,"6,4,9",6,L,0.20754022988505746,0.1098,0.2345111111111111,0.1742857142857143
43,4,8,0,3,0.061,1,1,15,70,26,29,16.591999999999988,0.427,0.061,0.122,16,2,1,1,74,2,1,1,5,0,20,5,6,6,L,0.21846511627906975,0.2135,0.061,0.122
43,5,9,0,4,94.7940000000035,12,407,17,97,22,60,101.07700000000351,0.244,0.366,1.0369999999999995,20,2,3,4,434,2,3,4,2,0,18,4.5,6,6,L,0.23289631336405528,0.122,0.122,0.25925
43,5,10,0,6,0,0,0,8,68,4,6,0.7319999999999998,5.489999999999996,0.427,2.8669999999999978,2,12,3,7,2,21,3,11,6,0.5,40,5.5,6,6,L,0.2490309278350515,0.2614285714285714,0.14233333333333334,0.2606363636363636
44,1,1,0,4,34.037999999999975,19,140,100,106,104,101,34.220999999999975,1.0369999999999995,0.366,1.524999999999999,20,5,1,6,142,6,1,7,2,1,24,2,4,6,L,0.24099295774647883,0.17283333333333334,0.366,0.21785714285714286
44,1,2,0,8,16.896999999999988,13,73,116,118,117,15,18.543999999999986,0.366,2.9889999999999977,1.585999999999999,18,2,7,6,79,2,12,9,2,0.5,18,3,"8,4",6,L,0.23473417721518985,0.183,0.24908333333333332,0.17622222222222222
44,2,3,0,8,1.524999999999999,7,8,111,113,112,114,2.5009999999999986,0.7319999999999998,0.488,0.9759999999999995,10,3,1,5,11,3,1,5,2,1,24,2,"8,4",6,L,0.17824675324675324,0.19707692307692307,0.17941176470588235,0.20333333333333334
44,2,4,0,4,0.366,2,2,105,97,101,103,0.488,2.744999999999998,1.8299999999999987,2.500999999999998,3,8,5,6,3,11,5,8,2,1,24,2,"4,8",6,L,0.21384269662921346,0.24954545454545451,0.36599999999999994,0.31262499999999993
44,3,5,0,8,1.0979999999999994,6,6,120,49,114,53,4.025999999999997,9.820999999999993,0.366,0.305,17,16,3,2,21,41,3,2,2,0,12,3,4,6,L,0.19351724137931034,0.23953658536585365,0.122,0.1525
44,3,6,0,0,0,0,0,103,34,36,92,1.646999999999999,0.122,3.2939999999999974,2.0129999999999986,8,1,11,10,8,1,16,10,0,0,15,3.75,0,6,L,0.2038904109589041,0.122,0.205875,0.2013
44,4,7,0,1,16.10399999999999,17,82,76,27,17,79,16.28699999999999,17.811999999999987,0.9149999999999996,0.061,19,17,5,1,84,76,5,1,3,0,17,4.25,0,6,L,0.19389285714285714,0.23436842105263156,0.183,0.061
44,4,8,0,10,59.47499999999995,16,230,95,96,91,53,60.26799999999995,0.122,0.7319999999999998,0.366,20,1,3,2,237,1,6,3,3,0.5,22,3.25,10,6,L,0.254295358649789,0.122,0.122,0.122
44,5,9,0,0,0,0,0,98,3,48,6,1.524999999999999,3.659999999999997,0.122,0.6709999999999998,7,9,1,3,7,14,1,3,0,0,19,4.75,0,6,L,0.25241379310344825,0.2614285714285714,0.122,0.22366666666666665
44,5,10,0,3,19.824999999999985,18,107,35,15,17,18,32.08599999999998,7.807999999999994,10.491999999999992,0.366,20,17,16,2,161,33,38,2,5,0.5,41,5.75,3,6,L,0.19929192546583852,0.23660606060606057,0.2761052631578947,0.183
45,1,1,0,7,29.889999999999976,19,139,19,18,63,62,31.109999999999975,1.7689999999999988,2.622999999999998,2.2569999999999983,20,5,8,9,142,9,10,11,6,0,20,5,0,6,L,0.21908450704225352,0.19655555555555554,0.2623,0.20518181818181816
45,1,2,0,3,20.190999999999985,16,97,53,79,81,2,29.21899999999998,7.258999999999994,13.41999999999999,1.0979999999999994,20,12,16,6,133,26,74,6,5,0,16,4,0,6,L,0.21969172932330827,0.27919230769230763,0.18135135135135133,0.183
45,2,3,0,8,28.791999999999977,15,122,115,117,118,46,29.767999999999976,2.744999999999998,2.622999999999998,1.8299999999999987,20,9,9,5,129,9,11,7,2,0.5,17,2.75,8,6,L,0.23075968992248058,0.30499999999999994,0.23845454545454545,0.2614285714285714
45,2,4,0,3,20.190999999999985,11,91,2,34,6,55,87.23000000000029,0.244,0.305,0.122,20,2,1,1,361,2,1,1,5,0,21,5.25,8,6,L,0.2416343490304709,0.122,0.305,0.122
45,3,5,0,8,22.386999999999983,17,97,120,119,68,17,22.935999999999982,5.001999999999996,0.183,1.0369999999999995,20,12,1,6,103,22,1,7,2,0,14,3.5,0,6,L,0.22267961165048542,0.22736363636363635,0.183,0.14814285714285713
45,3,6,0,6,58.80399999999995,9,239,3,6,1,51,61.30499999999995,4.330999999999997,0.061,2.9279999999999977,17,13,1,7,250,21,1,10,6,0.5,40,5.5,6,6,L,0.24521999999999997,0.20623809523809522,0.061,0.29279999999999995
45,4,7,0,7,17.079999999999988,18,83,14,23,20,33,26.107999999999983,0.427,0.061,0.9759999999999995,20,2,1,3,121,2,1,5,6,0.5,41,5.75,"7,6",6,L,0.2157685950413223,0.2135,0.061,0.19519999999999998
45,4,8,0,0,0,0,0,48,44,91,98,0.305,0.427,3.1719999999999975,1.4029999999999991,2,3,12,9,2,3,17,9,0,0,15,3.75,7,6,L,0.20884745762711862,0.14233333333333334,0.18658823529411764,0.15588888888888888
45,5,9,0,6,44.773999999999965,17,196,5,74,3,8,44.834999999999965,6.953999999999994,4.147999999999997,1.9519999999999986,18,14,9,7,197,35,12,7,6,0.5,39,5.25,"6,7",6,L,0.22758883248730963,0.19868571428571427,0.34566666666666657,0.2788571428571428
45,5,10,0,7,0,0,0,19,86,118,16,0.8539999999999996,12.99299999999999,2.439999999999998,2.622999999999998,3,16,9,12,5,58,10,15,6,0,17,4.25,6,6,L,0.23242335766423355,0.2240172413793103,0.244,0.17486666666666667
46,1,1,0,8,24.15599999999998,18,111,109,120,115,111,24.27799999999998,0.7319999999999998,0.122,8.417999999999994,20,4,2,13,113,5,2,41,2,1,24,2,8,6,L,0.21484955752212387,0.1464,0.061,0.2053170731707317
46,1,2,0,1,44.407999999999966,13,193,79,78,75,1,44.468999999999966,0.9149999999999996,1.9519999999999986,1.7079999999999989,14,4,6,4,194,4,6,4,3,0.5,24,3.75,"1,8",6,L,0.22922164948453608,0.22874999999999995,0.32533333333333325,0.42699999999999994
46,2,3,0,10,21.837999999999983,17,106,93,89,55,94,22.142999999999983,0.488,3.4159999999999973,0.488,19,2,10,5,108,2,16,5,3,0.5,22,3.25,"10,1,8",6,L,0.20502777777777775,0.244,0.21349999999999997,0.09759999999999999
46,2,4,0,6,0.061,1,1,3,9,78,5,3.903999999999997,2.805999999999998,3.9649999999999967,0.183,11,9,12,1,15,14,15,1,6,0.5,39,5.25,"6,10",6,L,0.2413478260869565,0.20042857142857143,0.2643333333333333,0.183
46,3,5,0,6,18.482999999999986,18,83,11,9,2,1,20.068999999999985,0.122,3.476999999999997,6.526999999999995,20,1,11,14,93,1,24,29,6,1,72,6,"6,10",6,L,0.21579569892473116,0.122,0.144875,0.22506896551724137
46,3,6,0,0,0,0,0,85,119,94,114,1.463999999999999,0.8539999999999996,3.9649999999999967,0.183,9,3,11,3,14,3,16,3,0,0,10,2.5,6,6,L,0.1713013698630137,0.2846666666666667,0.2478125,0.061
46,4,7,0,6,1.0979999999999994,5,5,5,10,1,6,1.2809999999999995,0.8539999999999996,4.269999999999997,1.463999999999999,7,6,14,7,7,6,21,8,6,1,72,6,6,6,L,0.22508999999999998,0.17223529411764704,0.21244827586206896,0.19316666666666665
46,4,8,0,7,15.432999999999987,16,72,21,19,24,58,15.493999999999987,1.585999999999999,2.622999999999998,5.184999999999996,17,5,9,10,73,6,12,16,6,0.5,40,5.5,"7,6",6,L,0.21224657534246574,0.2643333333333333,0.21858333333333332,0.3240624999999999
46,5,9,0,6,28.669999999999977,15,110,6,2,10,35,29.279999999999976,18.177999999999987,2.0739999999999985,1.4029999999999991,17,18,11,5,112,72,13,5,6,0.5,41,5.75,"6,7",6,L,0.2614285714285714,0.2524722222222222,0.15953846153846155,0.2806
46,5,10,0,7,26.83999999999998,20,117,14,13,16,18,31.536999999999974,16.652999999999988,1.2809999999999993,0.305,20,17,6,2,145,59,6,2,6,1,72,6,"7,6",6,L,0.21749655172413793,0.28225423728813553,0.2135,0.1525
47,1,1,0,4,38.91799999999997,18,182,108,15,78,23,39.10099999999997,18.543999999999986,0.244,0.061,19,18,2,1,183,74,2,1,2,0,17,4.25,0,6,L,0.21366666666666664,0.25059459459459454,0.122,0.061
47,1,2,0,10,19.702999999999985,19,96,88,94,93,39,19.885999999999985,0.122,0.9149999999999996,4.635999999999997,20,1,4,11,99,1,6,17,3,0.5,23,3.5,10,6,L,0.20086868686868684,0.122,0.1525,0.27270588235294113
47,2,3,0,1,37.08799999999997,19,155,73,78,76,20,37.69799999999997,0.305,1.3419999999999992,1.3419999999999992,20,3,5,3,159,3,5,3,3,0.5,24,3.75,"1,10",6,L,0.23709433962264148,0.10166666666666667,0.26839999999999997,0.44733333333333325
47,2,4,0,10,27.876999999999978,20,125,48,88,85,93,31.475999999999974,0.6709999999999998,2.1349999999999985,1.2809999999999993,20,4,7,6,142,4,7,9,3,0.5,23,3.5,"10,1",6,L,0.2216619718309859,0.16775,0.305,0.14233333333333334
47,3,5,0,10,2.683999999999998,12,16,8,86,96,90,15.371999999999987,1.585999999999999,0.488,0.6099999999999999,20,7,5,3,61,7,5,3,3,0.5,24,3.75,"10,1",6,L,0.2623,0.19926666666666665,0.13724999999999998,0.20333333333333334
47,3,6,0,0,0,0,0,78,82,56,36,2.3789999999999982,1.7689999999999988,0.7319999999999998,0.488,13,9,3,2,15,9,3,2,0,0,15,3.75,10,6,L,0.2162025316455696,0.19655555555555554,0.244,0.244
47,4,7,0,10,9.698999999999993,17,58,89,91,12,104,10.796999999999992,2.0739999999999985,10.735999999999992,5.245999999999996,20,5,14,11,63,7,42,17,3,0,14,3.5,0,6,L,0.17138095238095238,0.29628571428571426,0.2556190476190476,0.3085882352941176
47,4,8,0,1,34.342999999999975,13,152,78,79,80,16,38.79599999999997,4.635999999999997,0.9149999999999996,2.622999999999998,20,12,5,7,171,17,6,10,3,0.5,24,3.75,1,6,L,0.22687719298245612,0.27270588235294113,0.1525,0.2623
47,5,9,0,1,1.7689999999999988,10,12,78,52,83,17,2.7449999999999983,16.713999999999988,0.061,1.3419999999999992,14,17,1,6,16,66,1,6,3,0,16,4,0,6,L,0.21726027397260272,0.24930434782608693,0.13724999999999998,0.22366666666666665
47,5,10,0,3,25.31499999999998,19,126,98,101,108,3,32.57399999999998,6.953999999999994,1.2809999999999993,1.0369999999999995,20,14,3,5,152,30,3,5,5,0.5,18,3,3,6,L,0.21430263157894736,0.23179999999999995,0.4269999999999999,0.2074
48,1,1,0,1,20.373999999999985,18,106,79,44,20,13,21.593999999999983,3.659999999999997,1.463999999999999,9.820999999999993,20,9,5,14,112,11,6,31,3,0,20,5,0,6,L,0.1928035714285714,0.33272727272727265,0.244,0.31680645161290316
48,1,2,0,9,22.203999999999983,17,102,67,9,66,61,24.33899999999998,2.0129999999999986,4.391999999999997,4.391999999999997,20,6,12,12,111,8,20,22,4,0.5,30,4.5,9,6,L,0.21927027027027024,0.251625,0.21959999999999996,0.19963636363636364
48,2,3,0,9,0.427,2,2,64,68,67,62,1.4639999999999995,0.7929999999999997,1.7079999999999989,3.1109999999999975,6,6,6,8,7,6,7,18,4,1,48,4,9,6,L,0.22510619469026547,0.15685714285714286,0.244,0.17283333333333334
48,2,4,0,2,25.74199999999998,14,117,49,60,53,85,26.22999999999998,3.537999999999997,0.061,8.295999999999994,16,8,1,13,119,11,1,33,4,0.5,27,3.75,"2,9",6,L,0.22042016806722686,0.32163636363636355,0.061,0.25139393939393934
48,3,5,0,2,0.6709999999999998,4,4,56,54,50,12,4.818999999999997,1.585999999999999,1.0369999999999995,9.210999999999993,15,3,4,17,23,3,4,44,4,0.5,30,4.5,"2,9",6,L,0.2338333333333333,0.3354999999999999,0.21785714285714286,0.20934090909090908
48,3,6,0,0,0,0,0,68,64,104,96,0.8539999999999996,2.3179999999999983,0.7319999999999998,0.122,4,10,4,1,4,12,4,1,0,0,13,3.25,2,6,L,0.21627272727272726,0.19316666666666665,0.183,0.122
48,4,7,0,0,0,0,0,7,6,60,58,4.513999999999997,0.8539999999999996,12.13899999999999,0.305,13,7,16,1,20,7,59,1,0,0,20,5,0,6,L,0.1957462686567164,0.122,0.2057457627118644,0.305
48,4,8,0,9,28.059999999999977,19,148,72,66,19,89,28.547999999999977,5.855999999999995,8.356999999999994,0.122,20,13,14,1,151,26,38,1,4,0,17,4.25,0,6,L,0.18905960264900662,0.2252307692307692,0.21992105263157893,0.122
