Subject,Round,Phase,afterbreak,Schema,Schema_RT,Schema_OB,Schema_AS,Cho_1,Cho_2,Cho_3,Cho_4,RT_1,RT_2,RT_3,RT_4,OB_1,OB_2,OB_3,OB_4,AS_1,AS_2,AS_3,AS_4,schema_payoff,AC,performance,payoff,success_schema,breakR,type,dwellmean_1,dwellmean_2,dwellmean_3,dwellmean_4
1,1,1,1,14,79.78800000000177,11,320,93,92,52,30,80.03200000000177,2.683999999999998,0.244,4.6969999999999965,15,8,1,12,324,14,1,18,3,0,15,3.75,0,1,L,0.2470123456790123,0.1917142857142857,0.244,0.2609444444444444
1,1,2,1,1,89.4870000000029,11,356,74,76,44,21,89.7310000000029,0.305,3.903999999999997,0.488,14,2,9,3,359,2,18,4,3,0,17,4.25,0,1,L,0.24994707520891363,0.1525,0.21688888888888888,0.122
1,2,3,1,7,46.359999999999964,15,202,7,5,34,61,46.420999999999964,1.646999999999999,7.258999999999994,3.659999999999997,16,9,15,9,203,10,30,15,6,0,21,5.25,0,1,L,0.22867487684729063,0.16469999999999999,0.24196666666666664,0.24399999999999997
1,2,4,1,14,22.142999999999983,13,99,15,89,87,49,43.675999999999966,0.183,0.9149999999999996,0.5489999999999999,20,2,6,3,184,2,7,3,3,0,16,4,0,1,L,0.23736956521739128,0.0915,0.1307142857142857,0.183
1,3,5,1,13,19.580999999999985,18,82,113,115,119,117,19.824999999999985,0.305,0.5489999999999999,3.842999999999997,20,3,3,9,84,3,3,17,2,1,24,2,13,1,L,0.23601190476190473,0.10166666666666667,0.183,0.22605882352941173
1,3,6,1,1,17.628999999999987,20,94,79,83,75,84,17.933999999999987,2.683999999999998,0.122,0.305,20,9,1,2,97,9,1,2,3,1,36,3,"1,13",1,L,0.18488659793814433,0.2982222222222221,0.122,0.1525
1,4,7,1,0,0,0,0,105,3,101,40,2.0739999999999985,0.305,2.3789999999999982,1.585999999999999,9,2,10,8,12,2,12,9,0,0,15,3.75,13,1,L,0.24247499999999997,0.1525,0.19824999999999998,0.17622222222222222
1,4,8,1,13,19.092999999999986,18,91,116,119,109,117,20.800999999999984,0.244,2.1959999999999984,0.8539999999999996,20,2,9,5,101,2,10,5,2,1,24,2,13,1,L,0.20595049504950494,0.122,0.2196,0.1708
1,5,9,1,13,0,0,0,114,110,119,19,0.9149999999999996,1.0369999999999995,2.3789999999999982,2.9279999999999977,4,6,7,6,6,6,12,9,2,0.5,18,3,13,1,L,0.24548780487804875,0.17283333333333334,0.19824999999999998,0.32533333333333325
1,5,10,1,8,12.68799999999999,19,49,3,98,97,100,21.227999999999984,3.3549999999999973,0.061,1.2199999999999993,20,9,1,2,88,12,1,2,2,0.5,18,3,"8,13",1,L,0.2412272727272727,0.2795833333333333,0.061,0.6099999999999997
1,6,11,1,8,31.780999999999974,19,143,103,100,37,107,35.196999999999974,5.550999999999996,0.7319999999999998,3.842999999999997,20,14,5,12,160,26,5,22,2,0.5,17,2.75,"8,13",1,L,0.21998125,0.21349999999999997,0.1464,0.1746818181818182
1,6,12,1,13,1.0369999999999995,8,8,111,16,14,21,1.6469999999999994,14.456999999999988,5.855999999999995,1.524999999999999,12,16,12,6,12,61,22,7,2,0.5,38,5,"13,8",1,L,0.208,0.22921212121212117,0.23137931034482756,0.21785714285714283
1,7,13,1,13,0.305,2,2,117,120,56,111,1.2809999999999995,7.807999999999994,4.7579999999999965,0.7319999999999998,5,16,12,6,5,29,23,6,2,0.5,16,2.5,"13,8",1,L,0.22285333333333332,0.2692413793103448,0.2068695652173913,0.122
1,7,14,1,8,0,0,0,106,41,100,45,0.305,2.8669999999999978,0.061,6.282999999999995,3,11,1,13,3,13,1,34,2,0,14,3.5,13,1,L,0.20991176470588233,0.21034482758620687,0.061,0.1847941176470588
1,8,15,1,13,41.11399999999997,19,196,119,110,74,51,44.895999999999965,1.646999999999999,3.537999999999997,2.0739999999999985,20,6,10,9,221,7,15,12,2,0,11,2.75,0,1,L,0.2031493212669683,0.2352857142857143,0.23586666666666664,0.17283333333333334
1,8,16,1,15,13.602999999999989,17,67,24,13,18,23,13.663999999999989,5.001999999999996,2.439999999999998,1.0979999999999994,18,14,6,6,68,23,9,7,6,1,72,6,15,1,L,0.20094117647058823,0.2174782608695652,0.2711111111111111,0.15685714285714286
1,9,17,1,7,12.32199999999999,19,65,6,7,9,11,13.602999999999989,0.183,1.7689999999999988,0.9149999999999996,20,2,7,4,73,2,9,6,6,1,72,6,"7,15",1,L,0.18634246575342464,0.0915,0.19655555555555554,0.1525
1,9,18,1,15,0.8539999999999996,5,6,17,23,22,24,1.3419999999999996,4.025999999999997,2.3179999999999983,0.183,7,13,10,2,8,20,12,2,6,1,72,6,"15,7",1,L,0.1837625,0.18788,0.19316666666666665,0.0915
1,10,19,1,0,0,0,0,93,57,94,87,0.6709999999999998,1.7689999999999988,1.585999999999999,2.9279999999999977,5,9,6,7,6,10,7,8,0,0.5,22,3.25,"15,7",1,L,0.18458441558441557,0.1769,0.22657142857142856,0.3659999999999999
1,10,20,1,7,25.43699999999998,18,123,5,12,74,11,25.49799999999998,0.488,6.465999999999995,0.244,19,2,11,1,124,3,22,1,6,0.5,39,5.25,"7,15",1,L,0.22712765957446807,0.20691199999999998,0.2939090909090909,0.244
1,11,21,1,15,0.6099999999999999,4,4,20,24,22,16,1.5859999999999994,2.1349999999999985,1.7689999999999988,0.7319999999999998,9,8,6,4,10,11,7,5,6,1,72,6,"15,7",1,L,0.20989763779527557,0.1940909090909091,0.2527142857142857,0.1464
1,11,22,1,7,8.722999999999994,16,43,1,4,2,9,9.637999999999993,0.122,0.7319999999999998,0.061,19,1,3,1,46,1,3,1,6,1,72,6,"7,15",1,L,0.20952173913043476,0.122,0.24399999999999997,0.061
1,12,23,1,7,0,0,0,7,9,5,10,0.9149999999999996,0.305,1.9519999999999986,3.659999999999997,7,2,5,11,8,2,9,20,6,1,72,6,"7,15",1,L,0.17475675675675675,0.1525,0.21688888888888888,0.18299999999999997
1,12,24,1,15,6.8319999999999945,17,31,14,24,114,120,6.8929999999999945,5.184999999999996,0.9759999999999995,3.659999999999997,18,11,2,11,32,18,2,19,6,0,16,4,7,1,L,0.21529411764705883,0.2698076923076923,0.24018749999999997,0.1926315789473684
2,1,1,1,8,25.25399999999998,20,111,104,97,76,107,25.55899999999998,0.6099999999999999,8.600999999999994,5.306999999999996,20,5,14,16,115,6,33,25,2,0.5,15,2.25,8,1,L,0.22225217391304347,0.10166666666666667,0.2606363636363636,0.21227999999999997
2,1,2,1,11,21.654999999999983,16,111,19,65,61,40,41.35799999999997,0.305,1.0369999999999995,24.33899999999998,20,2,7,17,192,2,8,108,4,0,19,4.75,8,1,L,0.21540625,0.1525,0.129625,0.2253611111111111
2,2,3,1,13,18.238999999999987,18,92,118,111,116,119,18.421999999999986,0.6099999999999999,0.183,5.977999999999995,20,2,3,14,94,3,3,29,2,1,24,2,"13,8",1,L,0.19597872340425532,0.20333333333333334,0.061,0.20613793103448275
2,2,4,1,8,0,0,0,28,105,101,100,1.4029999999999991,1.8909999999999987,3.537999999999997,5.611999999999996,2,7,13,11,3,9,16,27,2,0.5,17,2.75,"8,13",1,L,0.27414942528735625,0.2278163265306122,0.22112499999999996,0.20785185185185184
2,3,5,1,13,24.52199999999998,20,113,113,110,112,111,25.13199999999998,0.7929999999999997,1.4029999999999991,2.2569999999999983,20,4,6,5,116,4,8,9,2,1,24,2,"13,8",1,L,0.2166551724137931,0.19824999999999998,0.175375,0.25077777777777777
2,3,6,1,0,0,0,0,84,14,45,76,5.306999999999996,2.500999999999998,8.783999999999994,0.366,15,9,16,1,30,17,39,1,0,0,17,4.25,13,1,L,0.21296491228070175,0.14711764705882352,0.2252307692307692,0.366
2,4,7,1,13,12.93199999999999,15,58,112,109,48,119,14.334999999999988,0.305,3.0499999999999976,1.9519999999999986,20,2,7,6,67,2,11,8,2,0.5,17,2.75,13,1,L,0.23069090909090909,0.30499999999999994,0.23413235294117646,0.24399999999999997
2,4,8,1,7,10.186999999999992,19,53,1,6,3,10,17.201999999999988,1.524999999999999,1.9519999999999986,14.517999999999988,20,5,7,16,81,7,7,56,6,1,72,6,"7,13",1,L,0.21237037037037035,0.21785714285714286,0.27885714285714275,0.25925
2,5,9,1,0,0,0,0,25,112,14,19,1.0979999999999994,0.6099999999999999,1.2199999999999993,0.7319999999999998,4,5,4,2,5,5,5,2,0,0,19,4.75,7,1,L,0.19885999999999998,0.122,0.244,0.366
2,5,10,1,7,1.0979999999999994,4,4,12,1,6,7,2.3789999999999987,2.0739999999999985,0.244,0.5489999999999999,12,7,2,4,13,8,2,5,6,1,72,6,7,1,L,0.18626785714285712,0.25925,0.122,0.1098
2,6,11,1,8,57.095999999999954,10,214,99,107,98,42,57.339999999999954,1.3419999999999992,2.3789999999999982,3.3549999999999973,12,6,11,7,216,6,15,13,2,0.5,17,2.75,"8,7",1,L,0.26546296296296296,0.22366666666666665,0.1586,0.2580769230769231
2,6,12,1,7,0.366,3,3,2,3,5,8,0.427,7.197999999999994,1.646999999999999,2.1959999999999984,4,15,7,10,4,35,8,14,6,1,72,6,"7,8",1,L,0.16520833333333332,0.20278378378378378,0.205875,0.15685714285714286
2,7,13,1,1,83.69200000000222,12,347,81,83,38,75,90.82900000000222,1.0979999999999994,5.184999999999996,1.463999999999999,20,5,11,6,381,5,18,6,3,0.5,23,3.5,"1,7,8",1,L,0.23839632545931755,0.2196,0.2880555555555555,0.244
2,7,14,1,0,0,0,0,95,1,26,5,0.5489999999999999,3.476999999999997,0.427,1.7079999999999989,3,13,1,8,3,25,1,9,0,0,20,5,1,1,L,0.23436842105263156,0.13908,0.427,0.18977777777777777
2,8,15,1,7,8.539999999999994,17,51,3,12,5,92,9.515999999999993,0.122,0.9149999999999996,20.373999999999985,20,1,3,16,54,1,4,83,6,0.5,39,5.25,"7,1",1,L,0.17622222222222222,0.122,0.22875,0.24546987951807228
2,8,16,1,1,13.23699999999999,16,53,78,80,82,38,19.214999999999986,2.3789999999999982,4.025999999999997,0.9149999999999996,20,10,12,5,84,12,20,5,3,0.5,23,3.5,"1,7",1,L,0.22874999999999998,0.19824999999999998,0.20129999999999998,0.183
2,9,17,1,8,0.061,1,1,102,2,7,40,0.6709999999999998,0.427,3.476999999999997,0.8539999999999996,4,3,12,4,4,3,14,4,2,0,19,4.75,0,1,L,0.23899999999999996,0.14233333333333334,0.24835714285714283,0.21349999999999997
2,9,18,1,3,15.859999999999987,20,69,14,16,30,29,38.36899999999997,2.1959999999999984,0.5489999999999999,0.061,20,10,3,1,159,10,3,1,5,0,22,5.5,0,1,L,0.24131446540880502,0.2196,0.183,0.061
2,10,19,1,14,24.27799999999998,20,96,88,87,95,7,24.58299999999998,2.3179999999999983,1.3419999999999992,9.271999999999993,20,7,7,15,97,9,8,36,3,0.5,24,3.75,14,1,L,0.25343298969072164,0.2575555555555555,0.16775,0.25755555555555554
2,10,20,1,1,28.608999999999977,18,133,77,75,73,102,30.133999999999975,3.1719999999999975,0.183,0.9759999999999995,20,9,1,4,139,12,1,4,3,0.5,20,2.75,"1,14",1,L,0.2167913669064748,0.2643333333333333,0.183,0.244
2,11,21,1,1,27.510999999999978,19,132,80,74,79,77,30.865999999999975,0.9149999999999996,0.6709999999999998,2.683999999999998,20,3,4,9,147,3,5,13,3,1,36,3,"1,14",1,L,0.20997278911564624,0.30499999999999994,0.13419999999999999,0.20646153846153845
2,11,22,1,14,0.366,4,4,85,86,15,16,1.8299999999999992,10.247999999999992,26.83999999999998,74.23700000000113,11,15,17,17,12,38,100,313,3,0,18,4.5,1,1,L,0.1784814814814815,0.26968421052631575,0.26839999999999997,0.23717891373801914
3,1,1,1,14,54.655999999999956,14,223,15,90,88,21,67.22199999999995,0.183,0.183,0.061,20,2,2,1,264,2,2,1,3,0,18,4.5,0,1,L,0.25462878787878784,0.0915,0.0915,0.061
3,1,2,1,8,15.432999999999987,20,88,105,107,62,47,18.787999999999986,3.720999999999997,23.240999999999982,0.5489999999999999,20,12,17,4,99,21,97,4,2,0,13,3.25,0,1,L,0.18977777777777777,0.17719047619047618,0.23959793814432986,0.13724999999999998
3,2,3,1,13,16.896999999999988,16,90,113,109,112,119,18.299999999999986,0.244,1.8909999999999987,0.244,20,3,9,2,98,3,10,2,2,1,24,2,13,1,L,0.186734693877551,0.08133333333333333,0.1891,0.122
3,2,4,1,7,8.051999999999994,11,40,6,8,10,73,9.027999999999993,0.122,2.500999999999998,1.7079999999999989,16,2,12,8,46,2,17,9,6,0.5,39,5.25,"7,13",1,L,0.19626086956521738,0.061,0.14711764705882352,0.18977777777777777
3,3,5,1,7,0,0,0,3,4,7,98,0.061,11.162999999999991,1.8909999999999987,3.903999999999997,1,15,7,8,1,54,7,11,6,0.5,38,5,"7,13",1,L,0.21688888888888888,0.19899999999999998,0.27014285714285713,0.35490909090909084
3,3,6,1,13,0.061,1,1,118,120,42,21,1.524999999999999,0.122,5.184999999999996,13.11499999999999,5,1,12,17,6,1,24,60,2,0,15,3.75,7,1,L,0.21241071428571429,0.122,0.21604166666666666,0.2185833333333333
3,4,7,1,0,0,0,0,32,11,2,52,2.744999999999998,0.427,0.7929999999999997,4.7579999999999965,11,4,5,15,12,5,5,21,0,0,21,5.25,0,1,L,0.19215,0.0854,0.1586,0.22657142857142856
3,4,8,1,15,10.369999999999992,10,50,14,24,43,37,10.552999999999992,9.332999999999993,0.183,3.537999999999997,12,15,1,10,52,43,1,16,6,0,22,5.5,0,1,L,0.20294230769230767,0.21704651162790697,0.183,0.221125
3,5,9,1,3,34.525999999999975,16,154,35,32,28,31,35.623999999999974,1.0369999999999995,1.1589999999999994,0.7929999999999997,20,6,5,4,160,8,6,4,5,1,60,5,3,1,L,0.22265,0.129625,0.19316666666666665,0.19824999999999998
3,5,10,1,11,46.481999999999964,16,211,70,110,114,117,46.664999999999964,18.787999999999986,6.526999999999995,0.5489999999999999,17,17,16,4,212,82,30,4,4,0.5,16,2.5,"11,3",1,L,0.22011792452830187,0.22912195121951218,0.21756666666666666,0.13724999999999998
3,6,11,1,11,0.7929999999999997,7,9,16,112,113,120,21.898999999999983,0.6099999999999999,7.746999999999994,2.439999999999998,20,4,18,8,86,4,40,9,4,0.5,18,3,"11,3",1,L,0.24954545454545451,0.14972727272727274,0.17664583333333334,0.2711111111111111
3,6,12,1,3,42.63899999999997,19,176,33,30,29,28,43.24899999999997,0.061,0.7929999999999997,3.0499999999999976,20,1,5,9,178,1,7,12,5,1,60,5,"3,11",1,L,0.24297191011235952,0.061,0.11328571428571428,0.25416666666666665
3,7,13,1,11,18.726999999999986,19,98,70,62,71,5,21.166999999999984,1.585999999999999,0.6709999999999998,11.95599999999999,20,6,2,14,110,7,2,50,4,0.5,30,4.5,"11,3",1,L,0.19242727272727272,0.22657142857142856,0.3355,0.23911999999999997
3,7,14,1,3,0,0,0,29,25,35,21,0.061,4.574999999999997,2.439999999999998,7.258999999999994,1,13,7,13,1,20,10,40,5,0.5,36,5.25,"3,11",1,L,0.23044444444444442,0.22874999999999998,0.244,0.181475
3,8,15,1,11,0.061,1,1,70,72,67,68,1.0979999999999994,1.0369999999999995,0.183,0.061,7,4,1,1,7,4,1,1,4,1,48,4,11,1,L,0.22306862745098038,0.25925,0.183,0.061
3,8,16,1,12,18.604999999999986,19,94,40,8,6,119,18.665999999999986,10.308999999999992,7.563999999999994,4.269999999999997,20,16,15,11,95,43,32,22,5,0,19,4.75,11,1,L,0.1964842105263158,0.23974418604651157,0.23637499999999995,0.1940909090909091
3,9,17,1,11,0.7319999999999998,6,6,70,71,92,7,4.025999999999997,21.593999999999983,5.672999999999996,0.7319999999999998,13,16,15,5,13,89,26,7,4,0,17,4.25,0,1,L,0.21227999999999997,0.23621276595744678,0.21819230769230769,0.10457142857142857
3,9,18,1,15,18.299999999999986,13,92,17,15,14,24,18.482999999999986,0.9759999999999995,1.524999999999999,2.3179999999999983,15,4,5,8,94,4,6,11,6,1,72,6,15,1,L,0.19662765957446807,0.244,0.25416666666666665,0.2107272727272727
3,10,19,1,2,59.41399999999995,15,234,42,88,54,60,74.11499999999994,0.061,0.427,5.550999999999996,20,1,2,14,291,1,2,25,4,0,16,4,15,1,L,0.2546907216494845,0.061,0.2135,0.22203999999999996
3,10,20,1,15,26.65699999999998,20,120,19,18,15,13,26.71799999999998,1.646999999999999,3.476999999999997,2.561999999999998,20,6,9,8,121,8,12,11,6,1,72,6,15,1,L,0.2208099173553719,0.205875,0.28974999999999995,0.2329090909090909
3,11,21,1,0,0,0,0,68,17,71,29,1.0369999999999995,1.0979999999999994,0.305,0.488,5,3,1,3,5,3,1,3,0,0,19,4.75,0,1,L,0.19555882352941176,0.36599999999999994,0.305,0.16266666666666665
3,11,22,1,14,33.610999999999976,11,160,115,93,86,88,34.708999999999975,0.183,0.427,0.427,13,2,2,3,162,2,2,3,3,0.5,20,2.75,14,1,L,0.21425308641975307,0.0915,0.2135,0.14233333333333334
3,12,23,1,7,25.13199999999998,20,115,8,60,11,6,26.35199999999998,4.513999999999997,0.5489999999999999,1.7079999999999989,20,10,4,6,119,20,4,7,6,0.5,40,5.5,"7,14",1,L,0.22144537815126047,0.22569999999999998,0.13724999999999998,0.24399999999999997
3,12,24,1,14,0.366,2,2,94,86,104,93,2.3789999999999987,2.9279999999999977,12.07799999999999,0.488,13,11,18,3,14,16,58,3,3,0.5,20,2.75,"14,7",1,L,0.19488311688311688,0.19017647058823528,0.2057457627118644,0.16266666666666665
4,1,1,1,13,15.798999999999987,17,81,117,23,47,84,15.920999999999987,22.630999999999982,0.9759999999999995,0.6099999999999999,19,18,2,3,83,99,2,3,2,0,16,4,0,1,L,0.19181927710843372,0.22859595959595957,0.488,0.20333333333333334
4,1,2,1,2,29.157999999999976,11,149,58,57,55,86,29.218999999999976,1.7079999999999989,0.183,11.223999999999991,12,7,1,14,150,8,1,38,4,0.5,27,3.75,2,1,L,0.19479333333333332,0.21349999999999997,0.183,0.29536842105263156
4,2,3,1,11,27.14499999999998,18,129,14,13,71,101,30.804999999999975,14.944999999999988,0.061,0.6099999999999999,20,18,1,1,141,68,1,1,4,0,18,4.5,2,1,L,0.21847517730496452,0.21977941176470586,0.061,0.6099999999999999
4,2,4,1,2,27.754999999999978,18,99,4,41,52,47,38.79599999999997,0.7319999999999998,0.183,0.305,20,1,2,1,140,1,2,1,4,0,20,5,0,1,L,0.25205660377358485,0.7319999999999998,0.0915,0.305
4,3,5,1,1,14.639999999999988,8,70,77,75,74,81,15.371999999999987,0.7319999999999998,1.8909999999999987,0.061,11,4,7,1,73,6,8,1,3,1,36,3,1,1,L,0.2105753424657534,0.122,0.23637499999999997,0.061
4,3,6,1,7,27.449999999999978,17,127,9,11,7,6,27.632999999999978,2.683999999999998,0.366,0.7929999999999997,20,12,3,3,130,16,3,3,6,1,72,6,"7,1",1,L,0.21256153846153844,0.16774999999999998,0.122,0.2643333333333333
4,4,7,1,14,45.749999999999964,15,206,93,91,96,85,46.115999999999964,1.8299999999999987,0.244,0.7929999999999997,17,9,2,4,208,10,2,4,3,1,36,3,"14,7,1",1,L,0.22171153846153846,0.183,0.122,0.19824999999999998
4,4,8,1,1,0.061,1,1,75,76,81,37,0.305,2.622999999999998,1.7689999999999988,0.061,2,9,8,1,2,13,9,1,3,0.5,23,3.5,"1,14",1,L,0.23789999999999997,0.20176923076923073,0.19655555555555554,0.061
4,5,9,1,1,29.401999999999976,19,131,82,80,78,13,30.865999999999975,0.5489999999999999,0.7929999999999997,2.561999999999998,20,3,4,6,139,3,5,9,3,0.5,24,3.75,"1,14",1,L,0.22205755395683452,0.183,0.1586,0.2846666666666667
4,5,10,1,14,19.214999999999986,18,92,93,1,8,63,22.813999999999982,5.123999999999996,0.122,1.524999999999999,20,12,1,4,111,19,1,4,3,0,19,4.75,1,1,L,0.20553153153153153,0.26968421052631575,0.122,0.38125
4,6,11,1,14,169.88500000001218,20,676,86,61,64,103,169.9460000000122,0.6099999999999999,0.061,1.585999999999999,20,3,1,7,677,3,1,8,3,0,13,3.25,1,1,L,0.25102806499261443,0.20333333333333334,0.061,0.19824999999999998
4,6,12,1,1,11.101999999999991,19,55,80,76,79,77,12.01699999999999,0.9149999999999996,1.524999999999999,0.7929999999999997,20,6,4,6,62,6,4,7,3,1,36,3,1,1,L,0.19382258064516128,0.1525,0.38124999999999987,0.11328571428571428
4,7,13,1,8,152.6220000000102,20,609,98,87,104,20,152.7440000000102,0.7929999999999997,0.5489999999999999,0.6709999999999998,20,6,4,4,610,6,4,4,2,0,13,3.25,1,1,L,0.25039999999999996,0.13216666666666665,0.13724999999999998,0.16775
4,7,14,1,1,23.301999999999982,18,120,79,9,84,5,24.33899999999998,3.659999999999997,1.8299999999999987,5.611999999999996,20,11,7,11,126,18,7,26,3,0,18,4.5,0,1,L,0.19316666666666665,0.20333333333333334,0.2614285714285714,0.21584615384615383
4,8,15,1,1,20.434999999999985,20,91,73,80,120,47,20.922999999999984,2.561999999999998,5.184999999999996,6.160999999999995,20,9,12,13,92,11,26,33,3,0,13,3.25,0,1,L,0.22742391304347823,0.2329090909090909,0.19942307692307693,0.1866969696969697
4,8,16,1,3,19.580999999999985,17,85,29,25,28,2,22.203999999999983,0.244,2.3789999999999982,1.585999999999999,20,3,10,5,96,3,15,6,5,0.5,36,5.25,3,1,L,0.23129166666666665,0.08133333333333333,0.1586,0.2643333333333333
4,9,17,1,3,21.166999999999984,18,91,25,27,36,23,23.91199999999998,1.3419999999999992,1.7079999999999989,3.1719999999999975,20,6,6,10,110,6,7,13,5,0.5,36,5.25,3,1,L,0.21738181818181815,0.22366666666666665,0.244,0.244
4,9,18,1,2,17.933999999999987,18,94,58,54,57,55,18.787999999999986,1.8909999999999987,1.524999999999999,0.061,20,7,5,1,97,9,5,1,4,1,48,4,"2,3",1,L,0.19369072164948453,0.21011111111111108,0.30499999999999994,0.061
4,10,19,1,3,4.330999999999997,11,16,28,3,8,111,4.391999999999997,13.17599999999999,5.245999999999996,2.683999999999998,12,15,13,12,17,55,19,12,5,0,19,4.75,2,1,L,0.20958974358974355,0.23746428571428568,0.3164374999999999,0.2575555555555555
4,10,20,1,0,0,0,0,80,37,97,54,0.183,3.2939999999999974,0.7929999999999997,2.3789999999999982,1,9,2,10,1,13,2,13,0,0,14,3.5,0,1,L,0.2218181818181818,0.2533846153846154,0.39649999999999996,0.183
4,11,21,1,11,9.637999999999993,12,41,71,103,1,68,13.17599999999999,12.80999999999999,9.759999999999993,0.061,20,17,16,1,60,50,46,1,4,0,16,4,0,1,L,0.2196,0.2562,0.21217391304347827,0.061
4,11,22,1,1,36.11199999999997,12,157,83,39,81,84,36.84399999999997,7.685999999999994,0.061,1.2199999999999993,15,15,1,5,161,33,1,6,3,0.5,23,3.5,1,1,L,0.2288447204968944,0.23290909090909087,0.061,0.2033333333333333
5,1,1,1,11,38.12499999999997,14,170,64,67,68,96,44.834999999999965,0.7929999999999997,1.9519999999999986,2.0739999999999985,20,3,8,6,192,3,11,9,4,0.5,27,3.75,11,1,L,0.23351562499999998,0.2643333333333333,0.17745454545454545,0.23044444444444442
5,1,2,1,8,54.472999999999956,14,235,2,73,37,11,101.68699999999993,0.427,0.8539999999999996,3.1719999999999975,20,2,6,12,428,2,6,13,2,0,20,5,11,1,L,0.23758644859813083,0.2135,0.14233333333333334,0.244
5,2,3,1,13,20.068999999999985,15,86,120,119,115,96,20.434999999999985,2.1349999999999985,1.4029999999999991,27.632999999999978,19,5,7,17,91,6,9,129,2,0.5,15,2.25,"13,11",1,L,0.22456043956043953,0.3558333333333333,0.15588888888888888,0.21420930232558139
5,2,4,1,11,2.0739999999999985,7,7,75,65,23,15,3.8429999999999973,1.0369999999999995,4.635999999999997,1.8299999999999987,13,2,9,6,13,2,18,7,4,0,19,4.75,13,1,L,0.23543859649122803,0.37362499999999993,0.25755555555555554,0.2614285714285714
5,3,5,1,13,10.796999999999992,16,48,118,120,69,116,13.29799999999999,0.061,9.393999999999993,0.5489999999999999,20,1,16,5,59,1,48,5,2,0.5,16,2.5,13,1,L,0.22538983050847455,0.061,0.19570833333333332,0.1098
5,3,6,1,2,37.02699999999997,17,173,55,51,57,10,37.14899999999997,3.537999999999997,10.613999999999992,0.7319999999999998,19,10,16,2,175,15,46,2,4,0.5,30,4.5,"2,13",1,L,0.21227999999999997,0.23586666666666664,0.23073913043478259,0.366
5,4,7,1,11,18.909999999999986,17,102,71,84,74,16,18.970999999999986,7.990999999999993,5.611999999999996,0.305,18,15,13,1,103,28,21,1,4,0,16,4,"2,13",1,L,0.18418446601941746,0.2853928571428571,0.2672380952380952,0.305
5,4,8,1,0,0,0,0,109,2,88,55,6.709999999999995,0.6709999999999998,3.781999999999997,1.2809999999999993,15,3,16,5,31,3,23,7,0,0,15,3.75,0,1,L,0.2127560975609756,0.22366666666666665,0.16443478260869565,0.183
5,5,9,1,15,12.01699999999999,18,71,20,17,14,18,12.68799999999999,0.9149999999999996,0.427,1.9519999999999986,20,4,2,8,74,4,2,9,6,1,72,6,15,1,L,0.17145945945945945,0.22874999999999998,0.2135,0.21688888888888888
5,5,10,1,12,16.40899999999999,11,72,45,41,37,46,16.469999999999988,1.524999999999999,0.8539999999999996,6.709999999999995,12,5,4,13,73,5,4,33,5,1,60,5,"12,15",1,L,0.22561643835616438,0.3049999999999998,0.2135,0.2033333333333333
5,6,11,1,15,0.305,3,3,17,51,13,21,2.134999999999999,14.700999999999988,0.488,1.524999999999999,8,17,2,6,8,72,2,6,6,0.5,40,5.5,"15,12",1,L,0.209358024691358,0.2006578947368421,0.16775,0.25416666666666665
5,6,12,1,12,1.2809999999999993,4,5,1,47,42,37,202.94700000001586,0.061,1.7079999999999989,0.122,20,1,6,2,827,1,7,2,5,0.5,36,5.25,"12,15",1,L,0.24055862831858404,0.13724999999999998,0.2661818181818182,0.061
5,7,13,1,12,4.6969999999999965,11,19,9,38,43,67,39.77199999999997,0.122,19.153999999999986,15.066999999999988,20,2,17,16,178,2,68,68,5,0,20,5,15,1,L,0.21302094240837696,0.1701578947368421,0.26514666666666664,0.22839534883720927
5,7,14,1,15,11.345999999999991,16,54,15,17,24,84,11.589999999999991,2.622999999999998,0.183,6.648999999999995,18,7,1,10,56,8,1,24,6,0.5,39,5.25,15,1,L,0.26026666666666665,0.29822222222222217,0.1525,0.23211688311688308
5,8,15,1,15,16.713999999999988,20,89,21,22,16,19,17.262999999999987,3.659999999999997,5.611999999999996,1.8909999999999987,20,9,13,7,90,17,22,7,6,1,72,6,15,1,L,0.1918111111111111,0.2152941176470588,0.2550909090909091,0.27014285714285713
5,8,16,1,1,40.62599999999997,14,171,81,73,84,68,42.39499999999997,0.305,4.6969999999999965,1.7079999999999989,20,2,10,6,181,2,15,7,3,0.5,22,3.25,"1,15",1,L,0.23422651933701655,0.1525,0.31313333333333326,0.24399999999999997
5,9,17,1,15,0.061,1,1,17,15,20,23,0.6099999999999999,8.722999999999994,0.6099999999999999,0.7929999999999997,4,17,2,2,4,48,2,2,6,1,72,6,"15,1",1,L,0.18960833333333332,0.18172916666666666,0.30499999999999994,0.39649999999999985
5,9,18,1,1,0.427,2,2,73,83,82,29,1.2199999999999998,0.244,3.720999999999997,11.406999999999991,7,2,11,16,8,2,15,37,3,0.5,23,3.5,"1,15",1,L,0.19788976377952755,0.0915,0.244,0.30829729729729727
5,10,19,1,8,0.061,1,1,57,104,98,99,7.9299999999999935,2.3789999999999982,0.427,0.061,13,8,2,1,30,10,2,1,2,0.5,16,2.5,8,1,L,0.23626760563380278,0.28335483870967737,0.27068749999999997,0.061
5,10,20,1,12,13.48099999999999,17,67,48,65,42,89,14.090999999999989,10.857999999999992,2.439999999999998,3.842999999999997,20,17,9,10,70,47,9,14,5,0,17,4.25,8,1,L,0.20129999999999998,0.23102127659574467,0.2711111111111111,0.27449999999999997
5,11,21,1,15,23.301999999999982,11,104,20,24,23,28,23.362999999999982,2.1349999999999985,3.598999999999997,5.062999999999996,12,6,11,14,105,7,19,21,6,0.5,41,5.75,"15,8",1,L,0.2225047619047619,0.30499999999999994,0.18942105263157893,0.24109523809523808
5,11,22,1,0,0,0,0,10,2,88,104,1.4029999999999991,3.598999999999997,4.269999999999997,1.8909999999999987,9,13,14,9,10,18,21,12,0,0,17,4.25,15,1,L,0.19852727272727272,0.19994444444444442,0.2033333333333333,0.15758333333333333
6,1,1,1,2,38.91799999999997,18,143,9,54,44,60,64.65999999999995,1.4029999999999991,0.122,0.122,20,8,2,2,252,8,2,2,4,0,19,4.75,0,1,L,0.25658730158730153,0.175375,0.061,0.061
6,1,2,1,11,33.183999999999976,13,157,71,70,64,65,35.013999999999974,0.427,0.7319999999999998,2.1349999999999985,20,2,6,7,165,2,6,8,4,1,48,4,11,1,L,0.2122060606060606,0.2135,0.122,0.266875
6,2,3,1,14,30.499999999999975,17,138,92,59,5,1,34.281999999999975,10.735999999999992,15.920999999999987,0.488,20,15,15,2,158,59,66,2,3,0,19,4.75,11,1,L,0.2169746835443038,0.18196610169491526,0.2412272727272727,0.244
6,2,4,1,0,0,0,0,29,62,101,76,2.744999999999998,7.624999999999994,2.0129999999999986,0.244,14,16,10,1,18,30,10,1,0,0,14,3.5,0,1,L,0.18215277777777777,0.25416666666666665,0.20129999999999998,0.244
6,3,5,1,15,18.909999999999986,10,81,13,52,50,24,18.970999999999986,7.807999999999994,0.305,6.282999999999995,11,14,1,14,82,31,1,30,6,0,20,5,0,1,L,0.23135365853658535,0.25187096774193546,0.305,0.2094333333333333
6,3,6,1,11,14.578999999999988,19,70,65,67,107,62,17.689999999999987,0.183,4.635999999999997,1.2199999999999993,20,2,10,8,80,2,14,9,4,0.5,26,3.5,11,1,L,0.221125,0.0915,0.33114285714285707,0.13555555555555554
6,4,7,1,11,5.855999999999995,14,26,4,61,66,63,11.77299999999999,2.1959999999999984,0.7929999999999997,2.805999999999998,20,7,8,8,51,8,9,12,4,0.5,30,4.5,11,1,L,0.22168292682926827,0.30499999999999994,0.18838235294117645,0.23383333333333334
6,4,8,1,15,6.648999999999995,14,34,14,16,17,24,8.722999999999994,1.646999999999999,0.183,1.646999999999999,20,4,3,8,43,4,3,9,6,1,72,6,"15,11",1,L,0.20286046511627906,0.4117499999999999,0.061,0.183
6,5,9,1,11,1.1589999999999994,5,5,64,118,63,5,1.2809999999999993,7.563999999999994,2.1959999999999984,3.720999999999997,7,15,7,10,7,36,9,16,4,0,16,4,15,1,L,0.21,0.21011111111111108,0.24399999999999997,0.2325625
6,5,10,1,0,0,0,0,60,14,24,99,1.585999999999999,1.0369999999999995,0.6099999999999999,3.720999999999997,5,6,4,13,5,7,4,19,0,0,18,4.5,0,1,L,0.21688888888888888,0.14814285714285713,0.1525,0.1958421052631579
6,6,11,1,15,18.726999999999986,19,98,21,13,63,107,18.787999999999986,1.9519999999999986,5.7339999999999955,0.244,20,7,8,2,99,8,14,2,6,0,18,4.5,0,1,L,0.18977777777777777,0.244,0.4095714285714284,0.122
6,6,12,1,7,12.80999999999999,15,71,3,7,9,76,12.87099999999999,4.6969999999999965,0.8539999999999996,15.615999999999987,16,13,2,16,72,22,2,70,6,0.5,39,5.25,7,1,L,0.1787638888888889,0.2135,0.4269999999999998,0.22308571428571425
6,7,13,1,12,29.706999999999976,13,132,48,41,38,58,30.499999999999975,1.0369999999999995,1.0369999999999995,16.10399999999999,17,5,5,16,136,5,5,62,5,0.5,34,4.75,"12,7",1,L,0.22426470588235292,0.20739999999999997,0.2074,0.2597419354838709
6,7,14,1,7,1.585999999999999,8,9,5,61,10,27,1.646999999999999,2.622999999999998,5.7339999999999955,10.247999999999992,9,5,14,14,10,8,27,36,6,0,21,5.25,12,1,L,0.19824999999999998,0.3017894736842105,0.1791875,0.26340909090909087
6,8,15,1,0,0,0,0,19,88,101,37,0.305,0.244,2.744999999999998,0.6099999999999999,1,2,8,4,1,2,10,4,0,0,16,4,0,1,L,0.2425121951219512,0.122,0.27449999999999997,0.1525
6,8,16,1,13,37.57599999999997,16,178,109,35,114,110,37.75899999999997,0.5489999999999999,0.427,0.6099999999999999,18,1,3,3,180,1,3,3,2,0.5,17,2.75,13,1,L,0.2097722222222222,0.5489999999999999,0.14233333333333334,0.20333333333333334
6,9,17,1,13,33.671999999999976,20,156,118,119,116,112,34.769999999999975,0.122,2.0739999999999985,1.8909999999999987,20,1,9,5,160,1,11,7,2,1,24,2,13,1,L,0.2173125,0.122,0.18854545454545454,0.2701428571428571
6,9,18,1,11,33.122999999999976,11,149,70,65,68,6,33.793999999999976,2.439999999999998,0.7319999999999998,1.2809999999999993,16,10,4,4,155,12,4,5,4,0.5,30,4.5,"11,13",1,L,0.21802580645161287,0.2033333333333333,0.183,0.25619999999999993
6,10,19,1,2,22.752999999999982,12,99,56,49,105,45,23.118999999999982,1.646999999999999,7.502999999999994,1.0979999999999994,14,7,15,3,101,8,33,3,4,0,15,3.75,"11,13",1,L,0.22890099009900988,0.205875,0.22736363636363632,0.366
6,10,20,1,1,0.061,1,1,76,81,78,77,0.122,0.8539999999999996,0.183,1.2809999999999993,2,5,1,6,2,5,1,7,3,1,36,3,1,1,L,0.2087156862745098,0.1708,0.183,0.18299999999999997
6,11,21,1,1,24.03399999999998,20,103,75,74,40,37,24.52199999999998,6.221999999999995,8.112999999999994,1.585999999999999,20,12,12,5,106,22,35,6,3,0,16,4,0,1,L,0.2313396226415094,0.28281818181818175,0.23179999999999998,0.2643333333333333
6,11,22,1,11,36.23399999999997,13,155,64,61,14,69,37.57599999999997,0.5489999999999999,0.6709999999999998,0.061,18,4,3,1,160,4,3,1,4,0.5,30,4.5,11,1,L,0.23484999999999998,0.13724999999999998,0.22366666666666665,0.061
6,12,23,1,12,31.109999999999975,16,123,15,41,20,39,39.22299999999997,1.2199999999999993,0.183,0.122,20,6,1,1,162,6,1,1,5,0,22,5.5,11,1,L,0.24211728395061724,0.20333333333333334,0.183,0.122
6,12,24,1,0,0,0,0,66,25,71,1,2.0129999999999986,0.427,2.2569999999999983,0.488,13,1,8,2,15,1,12,2,0,0,19,4.75,0,1,L,0.1780204081632653,0.427,0.18808333333333332,0.244
7,1,1,1,15,36.05099999999997,15,181,14,13,22,51,36.84399999999997,11.650999999999991,0.7929999999999997,1.4029999999999991,19,17,2,6,185,48,3,6,6,0.5,40,5.5,15,1,L,0.19915675675675673,0.24272916666666663,0.2643333333333333,0.2338333333333333
7,1,2,1,11,18.604999999999986,18,98,63,62,77,1,19.580999999999985,0.8539999999999996,12.32199999999999,1.8299999999999987,20,3,15,6,102,4,47,6,4,0,17,4.25,15,1,L,0.19197058823529412,0.2135,0.2621702127659574,0.30499999999999994
7,2,3,1,12,15.249999999999988,15,75,46,42,39,64,16.469999999999988,0.305,0.244,3.9649999999999967,20,1,1,9,80,1,1,12,5,0.5,34,4.75,"12,15",1,L,0.20587499999999997,0.305,0.244,0.3304166666666666
7,2,4,1,15,0.183,3,3,14,13,54,18,1.707999999999999,6.587999999999995,2.622999999999998,1.0979999999999994,11,11,10,3,12,20,13,5,6,0.5,40,5.5,"15,12",1,L,0.21471999999999997,0.32939999999999997,0.20176923076923076,0.21959999999999996
7,3,5,1,7,30.865999999999975,16,132,10,5,12,7,30.926999999999975,2.0129999999999986,1.3419999999999992,4.391999999999997,17,9,6,10,133,12,6,17,6,1,72,6,"7,15,12",1,L,0.23253383458646615,0.16775,0.22366666666666665,0.25835294117647056
7,3,6,1,1,0.061,1,1,80,74,14,81,2.1349999999999985,1.0369999999999995,1.2809999999999993,1.0369999999999995,7,5,4,3,8,5,4,4,3,0.5,24,3.75,"1,7",1,L,0.21806299212598423,0.2074,0.32025,0.25925
7,4,7,1,1,1.2199999999999993,7,7,75,54,76,14,2.134999999999999,15.615999999999987,4.452999999999997,3.2939999999999974,12,17,13,16,12,59,22,23,3,0,16,4,7,1,L,0.18769230769230769,0.26467796610169486,0.2024090909090909,0.14321739130434782
7,4,8,1,7,24.52199999999998,18,108,1,2,5,11,27.327999999999978,0.9759999999999995,0.061,4.818999999999996,20,4,1,12,127,5,1,24,6,1,72,6,7,1,L,0.2151811023622047,0.19519999999999998,0.061,0.20079166666666665
7,5,9,1,14,25.68099999999998,16,107,96,91,90,60,27.02299999999998,0.427,0.6709999999999998,1.463999999999999,20,4,2,6,114,4,2,8,3,0.5,22,3.25,"14,7",1,L,0.23704385964912278,0.10675,0.3354999999999999,0.183
7,5,10,1,7,2.8669999999999978,11,13,1,2,3,41,2.9279999999999977,1.585999999999999,1.0979999999999994,11.101999999999991,12,6,5,13,14,10,7,49,6,0.5,41,5.75,"7,14",1,L,0.15738,0.2604230769230769,0.20547368421052628,0.22657142857142856
7,6,11,1,14,3.537999999999997,10,19,14,85,92,58,18.421999999999986,0.183,0.183,0.244,20,1,3,3,67,1,3,3,3,0,16,4,7,1,L,0.23355855855855853,0.14814285714285713,0.1742857142857143,0.08133333333333333
7,6,12,1,7,0,0,0,12,8,118,3,1.585999999999999,2.2569999999999983,1.463999999999999,2.2569999999999983,5,7,5,7,7,7,7,8,6,0.5,38,5,7,1,L,0.2023267326732673,0.3224285714285714,0.20914285714285713,0.28212499999999996
7,7,13,1,12,12.93199999999999,14,65,39,38,40,37,14.090999999999989,1.646999999999999,0.122,1.463999999999999,18,7,1,6,69,7,1,10,5,1,60,5,"12,7",1,L,0.20421739130434782,0.2352857142857143,0.122,0.1464
7,7,14,1,7,0.5489999999999999,3,3,8,2,7,3,2.073999999999999,4.391999999999997,0.122,1.0369999999999995,8,8,1,3,8,14,1,3,6,1,72,6,"7,12",1,L,0.23249056603773582,0.31371428571428567,0.122,0.34566666666666657
7,8,15,1,3,12.56599999999999,20,66,29,34,35,63,13.724999999999989,0.122,2.0129999999999986,18.116999999999987,20,2,8,16,75,2,14,86,5,0.5,34,4.75,"3,7,12",1,L,0.183,0.061,0.14378571428571427,0.2106627906976744
7,8,16,1,13,0.061,1,1,1,43,38,4,24.39999999999998,0.122,0.122,0.061,19,2,1,1,87,2,1,1,2,0,22,5.5,3,1,L,0.24211728395061727,0.061,0.122,0.061
7,9,17,1,11,18.177999999999987,20,95,70,68,69,62,18.360999999999986,2.1959999999999984,0.7929999999999997,0.122,20,8,7,2,97,10,8,2,4,1,48,4,"11,3",1,L,0.18928865979381443,0.2196,0.09912499999999999,0.061
7,9,18,1,3,14.761999999999988,16,63,33,25,28,49,15.005999999999988,0.183,2.3179999999999983,9.881999999999993,17,2,8,16,64,2,11,45,5,0.5,34,4.75,"3,11",1,L,0.21031343283582088,0.17622222222222222,0.21282222222222222,0.22860747663551398
7,10,19,1,3,23.42399999999998,20,124,25,27,96,118,24.27799999999998,2.8669999999999978,8.417999999999994,0.5489999999999999,20,10,16,2,128,17,48,2,5,0,15,3.75,11,1,L,0.189671875,0.1686470588235294,0.175375,0.27449999999999997
7,10,20,1,0,0,0,0,65,40,20,68,0.6709999999999998,1.7079999999999989,1.0369999999999995,4.6969999999999965,2,7,7,14,2,8,7,26,0,0,19,4.75,0,1,L,0.24026530612244895,0.2135,0.14814285714285713,0.18065384615384614
7,11,21,1,3,26.71799999999998,19,127,29,32,35,13,26.83999999999998,0.122,1.8909999999999987,1.7079999999999989,20,2,11,7,128,2,13,8,5,0.5,36,5.25,3,1,L,0.20968749999999997,0.061,0.14546153846153845,0.21349999999999997
7,11,22,1,2,65.63600000000014,15,271,5,6,39,37,141.7640000000015,60.45099999999995,0.122,0.488,20,19,1,3,587,242,1,3,4,0,22,5.5,3,1,L,0.2415059625212947,0.24979752066115699,0.122,0.16266666666666665
7,12,23,1,3,3.537999999999997,15,18,34,32,71,36,4.269999999999997,1.4029999999999991,5.550999999999996,0.9759999999999995,19,9,15,4,22,12,25,6,5,0.5,34,4.75,3,1,L,0.2248728813559322,0.11691666666666667,0.22204,0.16266666666666665
7,12,24,1,8,63.25699999999995,10,259,99,19,88,14,63.43999999999995,2.622999999999998,2.561999999999998,0.122,11,9,10,1,260,10,11,1,2,0,17,4.25,3,1,L,0.24399999999999997,0.2623,0.2329090909090909,0.122
8,1,1,1,13,27.510999999999978,20,140,115,119,118,45,29.889999999999976,0.7319999999999998,0.061,3.2939999999999974,20,4,1,7,147,4,1,16,2,0.5,17,2.75,13,1,L,0.2033333333333333,0.183,0.061,0.205875
8,1,2,1,2,29.340999999999976,18,139,29,3,50,60,60.02399999999995,5.550999999999996,0.061,0.305,20,15,1,3,265,22,1,3,4,0,19,4.75,13,1,L,0.22650566037735848,0.2523181818181818,0.061,0.10166666666666667
8,2,3,1,7,31.048999999999975,13,138,1,10,45,41,31.109999999999975,3.1109999999999975,1.8299999999999987,2.805999999999998,14,8,7,9,139,11,9,13,6,0,22,5.5,13,1,L,0.22381294964028775,0.2828181818181818,0.20333333333333334,0.21584615384615385
8,2,4,1,13,28.242999999999977,20,152,114,115,110,32,28.425999999999977,0.9759999999999995,6.221999999999995,2.9279999999999977,20,4,13,8,154,4,26,10,2,0.5,17,2.75,13,1,L,0.18458441558441557,0.244,0.23930769230769228,0.29279999999999995
8,3,5,1,8,17.689999999999987,16,77,97,38,61,104,17.811999999999987,7.8689999999999936,10.857999999999992,1.646999999999999,18,16,15,7,79,40,46,9,2,0,13,3.25,13,1,L,0.2254683544303797,0.19672499999999998,0.23604347826086955,0.183
8,3,6,1,13,12.74899999999999,16,60,52,114,113,4,20.434999999999985,0.7929999999999997,0.122,7.014999999999994,20,3,1,13,90,3,1,33,2,0,14,3.5,0,1,L,0.23944776119402983,0.2218181818181818,0.21146666666666666,0.21257575757575756
8,4,7,1,13,11.406999999999991,20,53,120,117,115,21,12.44399999999999,1.3419999999999992,0.5489999999999999,23.78999999999998,20,6,4,15,60,6,4,87,2,0.5,18,3,13,1,L,0.2074,0.22366666666666665,0.13724999999999998,0.27344827586206893
8,4,8,1,14,11.406999999999991,16,60,91,92,9,96,11.467999999999991,1.463999999999999,6.465999999999995,0.244,17,6,14,2,61,7,24,2,3,0.5,24,3.75,"14,13",1,L,0.188,0.20914285714285713,0.26941666666666664,0.122
8,5,9,1,1,63.80599999999995,11,261,73,82,20,49,64.41599999999995,0.5489999999999999,2.2569999999999983,3.1719999999999975,13,3,5,8,263,3,8,12,3,0,16,4,"14,13",1,L,0.24492775665399236,0.183,0.28212499999999996,0.26433333333333325
8,5,10,1,11,2.1959999999999984,5,6,69,71,85,113,2.927999999999998,2.3179999999999983,0.7319999999999998,10.796999999999992,8,9,3,13,9,11,3,47,4,0,13,3.25,0,1,L,0.2057457627118644,0.2399333333333333,0.20391428571428571,0.22332203389830507
8,6,11,1,1,12.19999999999999,19,54,78,79,74,36,16.530999999999988,0.061,5.428999999999996,0.6709999999999998,20,1,12,1,75,1,24,1,3,0.5,23,3.5,1,1,L,0.22041333333333332,0.061,0.22620833333333332,0.6709999999999998
8,6,12,1,14,38.55199999999997,20,183,91,95,93,48,38.79599999999997,2.622999999999998,0.061,9.210999999999993,20,11,1,16,184,16,1,39,3,0.5,23,3.5,"14,1",1,L,0.2108478260869565,0.16393749999999999,0.061,0.23617948717948714
8,7,13,1,1,5.977999999999995,15,28,83,69,75,107,7.197999999999995,4.452999999999997,0.244,6.8319999999999945,19,11,1,12,32,14,2,21,3,0,12,3,14,1,L,0.23099999999999998,0.22127450980392155,0.1098,0.2605208333333333
8,7,14,1,14,0,0,0,85,7,2,5,1.4029999999999991,5.489999999999996,9.942999999999993,3.4159999999999973,7,11,15,11,9,20,44,14,3,0.5,39,5.25,14,1,L,0.2256407766990291,0.27449999999999997,0.2259772727272727,0.244
8,8,15,1,15,8.478999999999994,13,38,13,118,19,41,8.539999999999994,6.526999999999995,0.183,27.998999999999977,14,14,2,15,39,26,2,124,6,0,19,4.75,14,1,L,0.21897435897435896,0.25103846153846154,0.0915,0.22579838709677416
8,8,16,1,14,17.872999999999987,18,97,90,85,52,10,21.898999999999983,2.9889999999999977,5.428999999999996,5.367999999999996,20,9,12,15,116,14,20,27,3,0,16,4,0,1,L,0.18878448275862067,0.2135,0.27144999999999997,0.1988148148148148
8,9,17,1,7,4.818999999999996,8,23,11,1,3,6,7.258999999999995,1.4029999999999991,0.5489999999999999,0.6099999999999999,17,3,5,3,35,4,6,3,6,1,72,6,7,1,L,0.2074,0.3507499999999999,0.0915,0.20333333333333334
8,9,18,1,12,22.386999999999983,19,91,40,77,105,79,23.057999999999982,12.50499999999999,0.488,3.4159999999999973,20,17,4,9,94,47,4,10,5,0,13,3.25,7,1,L,0.24529787234042552,0.26606382978723403,0.122,0.3415999999999999
8,10,19,1,13,47.94599999999996,18,211,14,56,23,39,68.86899999999994,1.0979999999999994,1.0979999999999994,2.439999999999998,20,8,4,11,288,8,4,13,2,0,21,5.25,7,1,L,0.2391284722222222,0.13724999999999998,0.27449999999999997,0.18769230769230769
8,10,20,1,7,41.47999999999997,20,184,7,6,1,5,41.54099999999997,0.5489999999999999,3.3549999999999973,2.439999999999998,20,2,9,10,185,2,13,18,6,1,72,6,7,1,L,0.22454594594594593,0.27449999999999997,0.25807692307692304,0.13555555555555554
8,11,21,1,7,1.0979999999999994,6,6,7,1,8,9,4.452999999999997,3.4159999999999973,1.7689999999999988,1.2199999999999993,15,9,10,5,17,14,10,6,6,1,72,6,7,1,L,0.20042857142857143,0.244,0.1769,0.2033333333333333
8,11,22,1,8,84.97300000000237,15,353,57,51,50,35,85.76600000000238,6.8319999999999945,2.1349999999999985,4.818999999999996,19,13,8,14,357,29,11,23,2,0.5,29,4.25,"8,7",1,L,0.2402408963585434,0.23558620689655171,0.1940909090909091,0.20952173913043476
9,1,1,1,2,36.41699999999997,14,179,50,46,93,3,37.20999999999997,6.8929999999999945,5.062999999999996,15.005999999999988,19,12,12,16,184,22,19,51,4,0,18,4.5,0,1,L,0.20222826086956522,0.3133181818181818,0.2664736842105263,0.29423529411764704
9,1,2,1,3,24.70499999999998,20,111,27,36,29,31,24.88799999999998,0.061,2.805999999999998,5.7949999999999955,20,1,7,13,112,1,9,20,5,1,60,5,3,1,L,0.2222142857142857,0.061,0.3117777777777777,0.28974999999999995
9,2,3,1,12,18.604999999999986,15,80,37,40,45,38,19.885999999999985,0.244,0.366,0.488,18,2,2,3,85,2,2,3,5,1,60,5,"12,3",1,L,0.23395294117647056,0.122,0.183,0.16266666666666665
9,2,4,1,3,0.305,1,1,36,32,55,76,3.3549999999999978,0.427,14.212999999999989,0.488,8,3,18,5,11,3,60,5,5,0,17,4.25,12,1,L,0.24306153846153844,0.1525,0.2344142857142857,0.09759999999999999
9,3,5,1,12,14.334999999999988,16,64,47,48,46,7,19.702999999999985,2.3179999999999983,1.0979999999999994,16.713999999999988,20,10,3,16,78,14,3,69,5,0.5,36,5.25,12,1,L,0.2526025641025641,0.16557142857142856,0.366,0.242231884057971
9,3,6,1,8,13.907999999999989,19,77,100,107,104,103,14.944999999999988,0.061,0.244,3.842999999999997,20,1,2,12,80,1,2,19,2,1,24,2,"8,12",1,L,0.1868125,0.061,0.122,0.20226315789473684
9,4,7,1,8,0.061,1,1,97,102,103,101,10.613999999999992,0.061,0.7929999999999997,0.488,14,1,2,2,42,1,2,2,2,1,24,2,"8,12",1,L,0.22767605633802815,0.24625925925925926,0.39649999999999985,0.244
9,4,8,1,12,0,0,0,43,37,38,73,2.1349999999999985,2.561999999999998,1.463999999999999,8.417999999999994,8,9,8,16,11,16,10,41,5,0.5,33,4.5,"12,8",1,L,0.20464516129032256,0.1913181818181818,0.17537499999999998,0.2053170731707317
9,5,9,1,12,7.8689999999999936,15,39,56,109,73,111,17.140999999999988,9.820999999999993,3.4159999999999973,1.463999999999999,20,19,10,9,76,37,12,9,5,0,11,2.75,8,1,L,0.2214565217391304,0.23179999999999998,0.2846666666666666,0.16266666666666665
9,5,10,1,8,6.160999999999995,13,28,2,97,107,28,76.55500000000069,0.061,0.183,0.122,20,1,2,1,320,1,2,1,2,0,15,3.75,0,1,L,0.23923437499999997,0.061,0.0915,0.122
9,6,11,1,8,13.11499999999999,20,73,62,104,107,67,64.72099999999995,0.061,0.244,1.4029999999999991,20,1,2,5,283,1,2,5,2,0,12,3,0,1,L,0.22869611307420493,0.061,0.122,0.28059999999999996
9,6,12,1,1,69.47900000000058,12,302,75,80,84,54,70.57700000000058,1.0369999999999995,1.463999999999999,5.7949999999999955,17,4,3,15,308,4,4,30,3,0.5,22,3.25,1,1,L,0.22914610389610388,0.25925,0.366,0.19316666666666665
9,7,13,1,15,30.255999999999975,6,99,21,15,19,59,30.743999999999975,0.183,9.027999999999993,0.7319999999999998,8,1,13,2,101,1,28,3,6,0.5,40,5.5,"15,1",1,L,0.30439603960396033,0.183,0.3224285714285714,0.244
9,7,14,1,1,3.476999999999997,11,18,5,4,45,77,20.007999999999985,61.85399999999995,0.183,0.6709999999999998,20,19,2,2,83,283,2,2,3,0,20,5,15,1,L,0.23506034482758617,0.21579794520547943,0.17657894736842106,0.3354999999999999
9,8,15,1,15,0.427,1,1,15,24,14,19,0.671,0.427,13.846999999999989,0.6099999999999999,3,5,18,3,3,6,68,3,6,1,72,6,15,1,L,0.23891666666666664,0.07116666666666667,0.20363235294117646,0.20333333333333334
9,8,16,1,3,29.950999999999976,18,145,3,5,67,116,49.95899999999996,9.759999999999993,1.2809999999999993,2.1959999999999984,20,17,8,6,230,41,8,7,5,0,18,4.5,15,1,L,0.21721304347826084,0.23804878048780484,0.160125,0.3137142857142857
9,9,17,1,12,22.691999999999982,17,117,44,48,40,47,22.935999999999982,2.2569999999999983,1.8299999999999987,3.842999999999997,19,9,6,12,119,11,7,17,5,1,60,5,"12,15",1,L,0.1927394957983193,0.20518181818181816,0.2614285714285714,0.22605882352941176
9,9,18,1,15,8.295999999999994,16,40,18,19,22,114,10.857999999999992,1.1589999999999994,3.1719999999999975,1.646999999999999,20,7,12,7,56,8,16,7,6,0.5,38,5,"15,12",1,L,0.19389285714285714,0.144875,0.19824999999999998,0.2352857142857143
9,10,19,1,15,0.488,2,2,14,24,16,23,1.1589999999999998,0.6099999999999999,2.0129999999999986,2.622999999999998,7,2,6,9,7,2,9,14,6,1,72,6,"15,12",1,L,0.2131573033707865,0.2318,0.21584615384615383,0.17893333333333333
9,10,20,1,0,0,0,0,55,38,8,45,0.305,1.0979999999999994,0.305,0.488,1,5,1,2,1,5,1,2,0,0,20,5,15,1,L,0.2022037037037037,0.2196,0.305,0.244
9,11,21,1,15,1.2809999999999993,2,2,14,23,17,15,7.258999999999995,1.646999999999999,2.1349999999999985,0.305,12,4,6,3,23,4,6,3,6,1,72,6,15,1,L,0.21875862068965515,0.5733999999999998,0.3558333333333332,0.10166666666666667
9,11,22,1,11,75.6400000000013,12,283,63,6,11,68,76.86000000000129,10.613999999999992,3.1719999999999975,8.783999999999994,17,18,14,15,288,57,20,37,4,0,20,5,15,1,L,0.266875,0.18621052631578947,0.1586,0.2374054054054054
10,1,1,1,2,73.74900000000108,13,344,49,59,39,44,74.48100000000107,1.585999999999999,3.9649999999999967,3.9649999999999967,16,5,10,11,347,6,17,22,4,0,18,4.5,0,1,L,0.21464265129682994,0.2643333333333333,0.23323529411764704,0.1802272727272727
10,1,2,1,1,57.095999999999954,13,251,14,17,101,35,83.50899999999993,0.122,0.061,0.061,20,2,1,1,345,2,1,1,3,0,19,4.75,0,1,L,0.2420550724637681,0.061,0.061,0.061
10,2,3,1,11,16.22599999999999,18,85,66,62,31,14,17.445999999999987,0.061,17.628999999999987,5.001999999999996,20,1,18,14,88,1,68,18,4,0,19,4.75,0,1,L,0.19824999999999998,0.061,0.2592499999999999,0.27788888888888885
10,2,4,1,12,38.36899999999997,16,189,48,46,40,91,39.10099999999997,2.439999999999998,1.463999999999999,1.8909999999999987,20,8,5,5,193,10,7,6,5,0.5,33,4.5,12,1,L,0.20259585492227977,0.244,0.20914285714285713,0.3151666666666666
10,3,5,1,12,17.933999999999987,17,79,46,91,45,43,20.129999999999985,9.332999999999993,0.7929999999999997,9.637999999999993,20,15,6,15,93,36,7,41,5,0.5,33,4.5,12,1,L,0.2164516129032258,0.25925,0.11328571428571428,0.2350731707317073
10,3,6,1,11,51.48399999999996,12,210,65,75,72,80,55.997999999999955,0.427,1.9519999999999986,0.6099999999999999,20,3,7,3,233,3,8,3,4,0,14,3.5,12,1,L,0.24033476394849784,0.14233333333333334,0.244,0.20333333333333334
10,4,7,1,12,8.356999999999994,17,40,114,119,4,80,52.58199999999996,4.208999999999997,22.752999999999982,0.366,20,10,17,2,218,14,94,2,5,0,13,3.25,0,1,L,0.23899999999999996,0.3006428571428571,0.2420531914893617,0.183
10,4,8,1,3,10.796999999999992,11,49,32,36,35,25,12.68799999999999,2.0129999999999986,0.061,1.0369999999999995,20,6,1,4,62,7,1,6,5,1,60,5,3,1,L,0.20464516129032256,0.28757142857142853,0.061,0.1728333333333333
10,5,9,1,3,8.173999999999994,15,37,77,111,14,112,31.292999999999978,8.905999999999993,2.9279999999999977,0.8539999999999996,20,14,9,4,146,24,13,4,5,0,13,3.25,0,1,L,0.2008933333333333,0.3472307692307691,0.2191020408163265,0.2135
10,5,10,1,7,31.536999999999974,15,150,10,4,12,40,32.45199999999998,12.44399999999999,0.6099999999999999,3.476999999999997,20,16,4,10,155,45,4,18,6,0.5,41,5.75,7,1,L,0.20936774193548385,0.2765333333333333,0.1525,0.19316666666666665
10,6,11,1,2,11.467999999999991,20,66,54,16,25,96,11.528999999999991,19.336999999999986,4.269999999999997,0.8539999999999996,20,16,14,2,67,83,16,2,4,0,18,4.5,7,1,L,0.17207462686567163,0.2329759036144578,0.266875,0.4269999999999998
10,6,12,1,7,0,0,0,9,7,4,1,1.7689999999999988,2.0129999999999986,3.1719999999999975,4.879999999999996,6,8,11,11,6,12,13,17,6,1,72,6,7,1,L,0.23727966101694914,0.16775,0.244,0.2870588235294117
10,7,13,1,12,14.334999999999988,20,78,38,45,48,46,14.395999999999988,1.1589999999999994,1.2199999999999993,2.9279999999999977,20,4,4,10,79,5,5,13,5,1,60,5,"12,7",1,L,0.18222784810126583,0.2318,0.244,0.22523076923076923
10,7,14,1,7,0.061,1,1,12,2,10,82,0.305,1.2809999999999993,6.8319999999999945,0.366,3,4,13,3,3,5,26,3,6,0.5,39,5.25,"7,12",1,L,0.19519999999999998,0.21785714285714286,0.26276923076923075,0.122
10,8,15,1,2,32.69599999999998,20,131,58,49,54,30,32.87899999999998,0.305,0.427,2.744999999999998,20,3,2,7,133,3,3,8,4,0.5,29,4.25,"2,7,12",1,L,0.24721052631578944,0.10166666666666667,0.14233333333333334,0.34312499999999996
10,8,16,1,12,0.061,1,1,37,11,38,3,0.122,2.805999999999998,0.427,5.306999999999996,2,9,2,13,2,14,2,21,5,0,22,5.5,2,1,L,0.1767755102040816,0.183,0.18977777777777777,0.2314411764705882
10,9,17,1,2,21.471999999999984,18,98,49,58,13,17,24.64399999999998,2.744999999999998,3.598999999999997,4.391999999999997,20,7,12,12,112,9,16,20,4,0,20,5,0,1,L,0.22003571428571428,0.305,0.22493749999999996,0.2196
10,9,18,1,11,15.371999999999987,19,91,66,71,67,36,15.981999999999987,0.366,2.683999999999998,10.430999999999992,20,2,9,14,97,2,14,33,4,0.5,29,4.25,11,1,L,0.16476288659793814,0.183,0.1917142857142857,0.31609090909090903
10,10,19,1,12,33.183999999999976,16,140,38,51,46,94,34.525999999999975,0.305,0.305,1.3419999999999992,20,2,2,5,149,2,2,6,5,0,17,4.25,11,1,L,0.2317181208053691,0.1525,0.1525,0.22366666666666665
10,10,20,1,11,4.452999999999997,14,17,70,67,32,25,4.513999999999997,1.524999999999999,18.238999999999987,8.112999999999994,15,8,17,12,18,9,68,32,4,0,18,4.5,0,1,L,0.20983999999999997,0.23667999999999997,0.2682205882352941,0.25353125
10,11,21,1,1,22.996999999999982,20,113,81,78,82,73,23.42399999999998,1.2809999999999993,0.183,0.183,20,4,1,2,116,4,1,2,3,1,36,3,1,1,L,0.20193103448275862,0.3202499999999999,0.183,0.0915
10,11,22,1,3,46.84799999999996,8,194,30,22,32,89,48.73899999999996,7.563999999999994,0.7319999999999998,0.8539999999999996,16,15,3,2,203,37,3,2,5,0,19,4.75,1,1,L,0.24009359605911326,0.20443243243243242,0.24399999999999997,0.4269999999999998
11,1,1,1,14,25.68099999999998,16,123,91,90,86,88,26.83999999999998,0.8539999999999996,0.5489999999999999,1.4029999999999991,20,3,3,2,127,3,3,2,3,1,36,3,14,1,L,0.21133858267716535,0.2846666666666666,0.183,0.7014999999999998
11,1,2,1,3,23.54599999999998,20,116,33,30,14,26,25.00999999999998,1.7689999999999988,9.271999999999993,1.3419999999999992,20,5,17,4,124,5,44,4,5,0.5,36,5.25,"3,14",1,L,0.20169354838709674,0.3537999999999999,0.2107272727272727,0.33549999999999985
11,2,3,1,3,1.2809999999999993,3,4,26,34,36,49,1.3419999999999992,1.4029999999999991,1.524999999999999,7.441999999999994,4,4,7,14,5,4,7,34,5,0.5,34,4.75,"3,14",1,L,0.18034782608695651,0.21072727272727274,0.16657692307692307,0.2341081081081081
11,2,4,1,14,26.53499999999998,20,120,90,85,88,96,27.327999999999978,1.2809999999999993,2.0739999999999985,5.367999999999996,20,7,8,13,123,7,9,21,3,1,36,3,"14,3",1,L,0.22217886178861787,0.183,0.23044444444444445,0.2556190476190476
11,3,5,1,0,0,0,0,115,79,25,62,0.9759999999999995,0.061,0.488,2.8669999999999978,6,1,2,10,7,1,2,15,0,0,14,3.5,14,1,L,0.2008933333333333,0.061,0.244,0.19113333333333332
11,3,6,1,14,0.122,1,1,85,89,55,48,0.244,5.184999999999996,13.602999999999989,0.5489999999999999,2,14,16,3,2,24,52,3,3,0,15,3.75,0,1,L,0.20085365853658535,0.21604166666666666,0.2615961538461538,0.183
11,4,7,1,15,14.822999999999988,13,68,15,17,22,76,14.883999999999988,3.2939999999999974,0.7929999999999997,2.744999999999998,14,7,3,5,69,9,3,7,6,0.5,39,5.25,15,1,L,0.2157101449275362,0.36599999999999994,0.26433333333333325,0.39214285714285707
11,4,8,1,14,79.78800000000177,15,329,91,26,112,3,80.94700000000178,9.332999999999993,1.524999999999999,2.500999999999998,19,14,9,9,333,36,9,11,3,0,16,4,15,1,L,0.24308408408408405,0.25925,0.16944444444444445,0.22736363636363632
11,5,9,1,15,28.486999999999977,19,122,13,15,92,61,34.403999999999975,3.476999999999997,1.524999999999999,0.061,20,12,4,1,150,18,6,1,6,0,19,4.75,0,1,L,0.22935999999999998,0.19316666666666665,0.25416666666666665,0.061
11,5,10,1,7,21.532999999999983,16,93,3,8,38,11,22.020999999999983,0.9759999999999995,10.308999999999992,3.720999999999997,18,4,17,11,95,5,38,15,6,0.5,41,5.75,7,1,L,0.23179999999999998,0.19519999999999998,0.27128947368421047,0.24806666666666663
11,6,11,1,15,19.397999999999985,16,98,13,22,18,77,19.458999999999985,4.025999999999997,7.624999999999994,1.0369999999999995,17,7,15,6,99,12,39,7,6,0.5,39,5.25,"15,7",1,L,0.19655555555555554,0.3354999999999999,0.19551282051282048,0.14814285714285713
11,6,12,1,7,4.6969999999999965,13,20,6,5,7,8,5.123999999999996,10.003999999999992,1.2809999999999993,1.1589999999999994,15,18,7,6,22,41,8,7,6,1,72,6,"7,15",1,L,0.1708,0.24094999999999997,0.16012499999999996,0.16557142857142856
11,7,13,1,15,0,0,0,20,23,14,18,0.5489999999999999,2.622999999999998,1.0369999999999995,8.234999999999994,2,7,3,15,2,10,3,42,6,1,72,6,"15,7",1,L,0.2247808219178082,0.2623,0.34566666666666657,0.19607142857142856
11,7,14,1,7,0.7929999999999997,6,6,5,12,1,11,1.0979999999999996,0.7319999999999998,1.8909999999999987,1.8299999999999987,7,5,7,6,7,5,10,9,6,1,72,6,"7,15",1,L,0.178496644295302,0.1464,0.1891,0.20333333333333334
11,8,15,1,7,5.367999999999996,16,25,2,11,87,7,5.428999999999996,1.1589999999999994,1.463999999999999,3.2329999999999974,17,3,5,8,26,3,5,13,6,0.5,39,5.25,"7,15",1,L,0.18923863636363636,0.2606363636363636,0.22506896551724137,0.24869230769230766
11,8,16,1,0,0,0,0,78,75,72,19,0.183,1.463999999999999,0.488,0.061,1,7,4,1,1,7,4,1,0,0,16,4,7,1,L,0.21604166666666666,0.20914285714285713,0.122,0.061
11,9,17,1,7,1.0979999999999994,5,5,8,9,5,2,1.2199999999999993,8.051999999999994,0.488,2.805999999999998,7,13,3,7,7,32,3,8,6,1,72,6,7,1,L,0.23617948717948717,0.24954545454545451,0.13724999999999998,0.2999166666666666
11,9,18,1,15,26.22999999999998,14,121,14,24,21,72,26.29099999999998,0.244,4.635999999999997,7.746999999999994,15,1,11,13,122,1,17,28,6,0.5,40,5.5,"15,7",1,L,0.21549999999999997,0.244,0.27270588235294113,0.2766785714285714
11,10,19,1,15,2.439999999999998,12,15,17,15,18,22,2.8059999999999983,20.678999999999984,0.183,2.805999999999998,14,18,2,9,17,82,2,9,6,1,72,6,"15,7",1,L,0.22271140939597314,0.25218292682926824,0.0915,0.3117777777777777
11,10,20,1,7,7.197999999999994,15,36,2,10,5,27,7.319999999999994,1.9519999999999986,1.0979999999999994,20.800999999999984,16,4,3,15,37,4,3,74,6,0.5,41,5.75,"7,15",1,L,0.20853488372093024,0.3331538461538461,0.23604347826086955,0.25295412844036697
11,11,21,1,15,0.183,1,1,23,27,18,21,2.3789999999999982,3.2329999999999974,0.122,1.1589999999999994,10,8,1,5,12,11,1,5,6,0.5,41,5.75,"15,7",1,L,0.1646031746031746,0.2939090909090909,0.122,0.2318
11,11,22,1,7,31.170999999999975,19,141,10,5,1,67,31.658999999999974,0.305,33.854999999999976,0.061,20,2,18,1,142,2,130,1,6,0.5,40,5.5,"7,15",1,L,0.2229507042253521,0.1525,0.26042307692307687,0.061
11,12,23,1,15,22.142999999999983,20,106,19,17,13,21,22.630999999999982,1.9519999999999986,10.918999999999992,3.2329999999999974,20,7,14,10,107,10,46,14,6,1,72,6,"15,7",1,L,0.21150467289719624,0.19519999999999998,0.23736956521739128,0.2309285714285714
11,12,24,1,7,3.1109999999999975,12,13,1,10,7,64,3.7819999999999974,0.427,10.186999999999992,2.683999999999998,15,3,15,10,16,3,39,16,6,0.5,40,5.5,"7,15",1,L,0.2329090909090909,0.14233333333333334,0.26120512820512815,0.16775
12,1,1,1,2,58.13299999999995,14,257,6,54,27,2,68.80799999999995,2.1349999999999985,2.439999999999998,4.7579999999999965,20,7,11,14,306,8,12,22,4,0,21,5.25,0,1,L,0.2248627450980392,0.266875,0.2033333333333333,0.21627272727272726
12,1,2,1,8,24.64399999999998,17,106,107,102,97,106,26.53499999999998,0.427,0.183,0.427,20,2,1,3,115,2,1,3,2,1,24,2,8,1,L,0.23073913043478259,0.2135,0.183,0.14233333333333334
12,2,3,1,8,17.994999999999987,20,94,105,101,103,104,19.336999999999986,1.585999999999999,0.305,0.061,20,5,1,1,98,5,1,1,2,1,24,2,8,1,L,0.19731632653061223,0.3171999999999999,0.305,0.061
12,2,4,1,12,65.88000000000017,12,300,39,37,40,24,66.55100000000017,1.585999999999999,1.8299999999999987,5.001999999999996,16,8,7,11,304,8,8,18,5,0.5,36,5.25,"12,8",1,L,0.2189177631578947,0.19824999999999998,0.22874999999999998,0.27788888888888885
12,3,5,1,0,0,0,0,51,88,21,47,2.3179999999999983,0.6099999999999999,0.6099999999999999,2.561999999999998,7,6,5,11,7,6,5,12,0,0,18,4.5,0,1,L,0.27697297297297296,0.10166666666666667,0.122,0.2135
12,3,6,1,3,27.327999999999978,19,120,35,34,10,31,29.340999999999976,0.427,1.524999999999999,1.7689999999999988,20,2,6,5,128,2,7,8,5,0.5,36,5.25,3,1,L,0.22922656249999998,0.2135,0.21785714285714283,0.221125
12,4,7,1,15,23.66799999999998,18,119,15,24,37,17,23.72899999999998,8.600999999999994,2.1349999999999985,0.5489999999999999,19,15,11,3,120,32,13,4,6,0.5,41,5.75,"15,3",1,L,0.19774166666666665,0.26878124999999997,0.16423076923076924,0.13724999999999998
12,4,8,1,3,18.238999999999987,18,93,35,29,31,8,19.092999999999986,4.6969999999999965,0.488,16.835999999999988,20,14,4,17,96,21,4,78,5,0.5,36,5.25,"3,15",1,L,0.19888541666666665,0.22366666666666665,0.122,0.21584615384615383
12,5,9,1,3,1.3419999999999992,8,8,30,85,91,2,10.308999999999992,13.724999999999989,4.025999999999997,4.025999999999997,20,16,7,14,52,66,9,23,5,0,17,4.25,15,1,L,0.19587155963302752,0.20795454545454545,0.44733333333333325,0.17504347826086955
12,5,10,1,15,0,0,0,20,15,14,19,2.683999999999998,0.488,2.805999999999998,0.7929999999999997,8,4,8,6,13,4,14,7,6,1,72,6,15,1,L,0.20413861386138613,0.21349999999999997,0.19519999999999998,0.11328571428571428
12,6,11,1,7,28.486999999999977,19,142,11,4,35,12,30.987999999999975,10.064999999999992,0.244,4.635999999999997,20,16,1,12,153,46,1,22,6,0.5,41,5.75,"7,15",1,L,0.20253594771241828,0.21880434782608693,0.244,0.2107272727272727
12,6,12,1,15,0.6099999999999999,3,3,15,17,16,22,0.6709999999999998,0.6099999999999999,1.463999999999999,2.1959999999999984,4,3,5,6,4,3,5,7,6,1,72,6,"15,7",1,L,0.25925,0.19450943396226414,0.27449999999999997,0.2711111111111111
12,7,13,1,15,0,0,0,13,23,19,14,0.061,2.500999999999998,2.0739999999999985,0.488,1,10,10,2,1,15,11,2,6,1,72,6,"15,7",1,L,0.20726136363636363,0.18082142857142858,0.16557142857142856,0.22630999999999998
12,7,14,1,7,4.574999999999997,16,19,6,2,3,26,8.295999999999994,7.441999999999994,1.3419999999999992,0.122,20,12,5,1,40,26,6,1,6,0.5,41,5.75,"7,15",1,L,0.2004285714285714,0.2862307692307692,0.22366666666666662,0.122
12,8,15,1,7,0.305,2,2,2,1,63,8,7.624999999999994,5.123999999999996,1.8299999999999987,0.8539999999999996,18,14,8,3,34,25,9,3,6,0.5,40,5.5,"7,15",1,L,0.20333333333333334,0.20646153846153845,0.20333333333333328,0.2846666666666667
12,8,16,1,0,0,0,0,51,16,54,31,3.4159999999999973,1.3419999999999992,5.428999999999996,0.7929999999999997,11,3,17,3,16,4,32,3,0,0,19,4.75,7,1,L,0.1913181818181818,0.33549999999999996,0.16965625,0.2643333333333333
12,9,17,1,7,31.170999999999975,20,152,82,32,3,9,36.84399999999997,0.305,1.0979999999999994,1.646999999999999,20,2,4,5,177,2,4,8,6,0,20,5,0,1,L,0.20815819209039546,0.1525,0.27449999999999997,0.20587499999999997
12,9,18,1,15,13.602999999999989,17,62,15,20,17,95,13.663999999999989,2.0739999999999985,2.0739999999999985,0.6099999999999999,18,9,5,4,63,11,5,5,6,0.5,39,5.25,15,1,L,0.21688888888888888,0.18854545454545454,0.41479999999999995,0.122
12,10,19,1,11,43.49299999999997,18,175,108,70,71,68,45.444999999999965,1.2199999999999993,0.061,2.439999999999998,20,6,1,10,182,6,1,15,4,0.5,26,3.5,"11,15",1,L,0.24969780219780216,0.2033333333333333,0.061,0.16266666666666665
12,10,20,1,15,21.288999999999984,16,92,14,83,23,81,21.410999999999984,3.4159999999999973,2.0129999999999986,5.001999999999996,17,10,6,11,93,13,6,16,6,0,18,4.5,11,1,L,0.21824444444444444,0.24203225806451611,0.23959793814432986,0.31262499999999993
12,11,21,1,11,27.08399999999998,20,130,66,68,34,71,27.754999999999978,1.8909999999999987,2.1349999999999985,0.9149999999999996,20,8,7,3,132,9,10,3,4,0.5,29,4.25,11,1,L,0.21026515151515152,0.2101111111111111,0.2135,0.30499999999999994
12,11,22,1,2,33.915999999999976,12,155,49,57,59,53,34.952999999999975,0.244,1.7079999999999989,7.8689999999999936,17,1,7,16,160,1,7,39,4,1,48,4,"2,11",1,L,0.21845624999999996,0.244,0.24399999999999997,0.20176923076923076
12,12,23,1,11,32.939999999999976,20,144,71,64,79,61,33.732999999999976,1.463999999999999,2.500999999999998,2.1959999999999984,20,5,10,7,148,7,17,8,4,0.5,27,3.75,"11,2",1,L,0.22792567567567565,0.20914285714285713,0.14711764705882352,0.27449999999999997
12,12,24,1,2,0.122,1,1,53,57,56,14,2.500999999999998,0.9759999999999995,2.0129999999999986,17.689999999999987,9,5,5,16,13,5,6,77,4,0.5,30,4.5,"2,11",1,L,0.2329568965517241,0.19519999999999998,0.33549999999999996,0.22974025974025972
13,1,1,1,13,38.61299999999997,19,176,117,120,26,109,39.64999999999997,0.122,3.659999999999997,1.1589999999999994,20,1,12,5,182,1,17,5,2,0.5,17,2.75,13,1,L,0.21785714285714283,0.122,0.21529411764705877,0.23179999999999998
13,1,2,1,7,16.34799999999999,20,89,4,1,2,12,18.360999999999986,8.051999999999994,0.7319999999999998,0.7929999999999997,20,15,2,3,95,28,2,4,6,1,72,6,"7,13",1,L,0.1932736842105263,0.2875714285714285,0.366,0.19824999999999998
13,2,3,1,13,0,0,0,113,110,119,55,1.7079999999999989,0.183,1.4029999999999991,4.391999999999997,9,1,6,11,10,1,9,20,2,0.5,16,2.5,"13,7",1,L,0.2113965517241379,0.183,0.15588888888888888,0.2196
13,2,4,1,7,4.391999999999997,12,16,12,2,4,9,4.452999999999997,5.184999999999996,0.366,0.122,13,9,2,2,17,14,2,2,6,1,72,6,"7,13",1,L,0.23514516129032256,0.3281379310344827,0.183,0.061
13,3,5,1,12,0.061,1,1,48,37,47,40,1.1589999999999994,1.0979999999999994,1.0979999999999994,2.0739999999999985,8,4,4,6,9,5,4,7,5,1,60,5,12,1,L,0.20294230769230767,0.2196,0.2744999999999999,0.29628571428571426
13,3,6,1,8,15.432999999999987,18,69,13,18,105,100,35.684999999999974,2.805999999999998,0.061,0.061,20,11,1,1,154,12,1,1,2,0,16,4,12,1,L,0.2317207792207792,0.23383333333333334,0.061,0.061
13,4,7,1,12,0.6099999999999999,4,5,43,18,19,41,1.5249999999999995,10.857999999999992,1.1589999999999994,0.5489999999999999,9,16,5,4,11,43,7,4,5,0,22,5.5,0,1,L,0.184,0.24815909090909088,0.15527272727272726,0.13724999999999998
13,4,8,1,3,17.628999999999987,16,94,26,33,28,78,21.715999999999983,0.7319999999999998,0.427,3.720999999999997,20,4,5,7,106,4,5,9,5,0.5,33,4.5,3,1,L,0.20486792452830188,0.183,0.0854,0.41344444444444434
13,5,9,1,7,13.17599999999999,15,66,2,9,6,40,13.23699999999999,1.463999999999999,9.210999999999993,27.266999999999978,16,5,14,16,67,6,38,109,6,0.5,41,5.75,"7,3",1,L,0.19756716417910447,0.244,0.24239473684210525,0.25015596330275225
13,5,10,1,3,1.7079999999999989,10,11,27,15,30,31,2.073999999999999,23.72899999999998,0.7319999999999998,0.061,12,19,2,1,13,103,2,1,5,0.5,36,5.25,"3,7",1,L,0.21674468085106383,0.230188679245283,0.183,0.061
13,6,11,1,0,0,0,0,100,91,29,10,1.646999999999999,1.463999999999999,0.427,0.366,9,6,3,2,9,6,3,2,0,0,16,4,0,1,L,0.17893333333333333,0.244,0.14233333333333334,0.183
13,6,12,1,15,12.26099999999999,15,55,15,16,18,24,15.676999999999987,1.463999999999999,1.463999999999999,2.683999999999998,20,3,6,5,67,3,7,5,6,1,72,6,15,1,L,0.23398507462686563,0.4879999999999999,0.20914285714285713,0.5367999999999997
13,7,13,1,12,37.45399999999997,12,176,42,44,68,47,37.51499999999997,2.2569999999999983,4.818999999999996,2.622999999999998,13,7,13,10,177,10,18,13,5,0.5,34,4.75,"12,15",1,L,0.21194915254237287,0.22569999999999998,0.2677222222222222,0.20176923076923076
13,7,14,1,15,0,0,0,13,15,17,20,0.061,3.2939999999999974,0.122,0.7319999999999998,1,8,1,1,1,9,1,1,6,1,72,6,"15,12",1,L,0.18715909090909089,0.3493636363636363,0.17830769230769228,0.7319999999999998
13,8,15,1,7,31.048999999999975,18,133,6,2,63,26,31.109999999999975,1.4029999999999991,2.744999999999998,12.87099999999999,19,6,10,15,134,7,16,57,6,0,21,5.25,"15,12",1,L,0.2321641791044776,0.20042857142857143,0.1715625,0.22580701754385962
13,8,16,1,12,0.061,1,1,40,43,41,89,0.8539999999999996,2.439999999999998,3.3549999999999973,0.427,7,8,9,4,8,12,12,4,5,0.5,33,4.5,12,1,L,0.19573043478260868,0.20333333333333334,0.2795833333333333,0.10675
13,9,17,1,2,16.34799999999999,18,88,49,53,52,59,16.774999999999988,23.118999999999982,0.427,6.709999999999995,20,19,2,13,92,93,2,24,4,1,48,4,"2,12",1,L,0.18233695652173912,0.24859139784946233,0.2135,0.2795833333333333
13,9,18,1,12,6.953999999999994,15,34,47,44,3,120,7.014999999999994,1.0369999999999995,8.417999999999994,3.0499999999999976,16,5,17,7,35,6,37,10,5,0,18,4.5,2,1,L,0.20634567901234566,0.17283333333333334,0.22751351351351348,0.30499999999999994
13,10,19,1,2,0.5489999999999999,3,3,57,16,115,22,0.9149999999999999,18.787999999999986,2.2569999999999983,10.369999999999992,5,19,5,15,5,76,6,45,4,0,18,4.5,0,1,L,0.1756060606060606,0.24478205128205124,0.3761666666666666,0.23044444444444442
13,10,20,1,8,37.75899999999997,14,179,98,10,8,3,38.00299999999997,10.369999999999992,5.123999999999996,18.848999999999986,15,14,12,16,180,35,15,83,2,0.5,38,5,8,1,L,0.21112777777777775,0.29628571428571426,0.3415999999999999,0.22709638554216866
13,11,21,1,8,30.316999999999975,19,149,105,99,7,104,30.438999999999975,3.476999999999997,2.622999999999998,3.2939999999999974,20,11,7,11,150,16,7,17,2,0.5,18,3,8,1,L,0.20292666666666664,0.21731249999999996,0.37471428571428556,0.19376470588235292
13,11,22,1,13,15.859999999999987,18,85,41,112,120,43,43.12699999999997,0.061,1.7079999999999989,0.183,20,1,7,1,213,1,7,1,2,0,14,3.5,8,1,L,0.20247417840375587,0.061,0.24399999999999997,0.183
13,12,23,1,12,18.604999999999986,20,89,44,45,41,70,19.702999999999985,0.061,4.269999999999997,3.1109999999999975,20,1,13,11,95,1,21,12,5,0.5,34,4.75,"12,8",1,L,0.20739999999999997,0.061,0.20333333333333334,0.25925
13,12,24,1,8,26.22999999999998,18,106,107,105,102,101,28.303999999999977,0.7319999999999998,5.977999999999995,1.4029999999999991,20,4,14,5,114,4,27,5,2,1,24,2,"8,12",1,L,0.24828070175438594,0.183,0.22140740740740739,0.28059999999999996
14,1,1,1,13,20.434999999999985,16,96,109,119,113,118,20.861999999999984,1.3419999999999992,2.1959999999999984,0.7319999999999998,19,8,9,5,99,9,20,5,2,1,24,2,13,1,L,0.2107272727272727,0.1491111111111111,0.1098,0.1464
14,1,2,1,3,26.47399999999998,19,113,30,29,36,64,27.510999999999978,0.9759999999999995,0.122,3.903999999999997,20,5,1,10,119,6,1,18,5,0.5,34,4.75,"3,13",1,L,0.23118487394957982,0.16266666666666665,0.122,0.21688888888888885
14,2,3,1,14,0.061,1,1,87,86,30,92,2.1349999999999985,1.4029999999999991,0.7319999999999998,0.122,7,4,4,2,7,4,5,2,3,0.5,23,3.5,14,1,L,0.23355855855855853,0.35075,0.1464,0.061
14,2,4,1,7,19.153999999999986,18,95,7,1,10,12,20.495999999999984,3.659999999999997,1.2199999999999993,1.8299999999999987,20,16,4,9,102,24,4,11,6,1,72,6,"7,14",1,L,0.20094117647058823,0.1525,0.305,0.16636363636363635
14,3,5,1,15,30.987999999999975,17,148,18,60,40,24,31.048999999999975,6.587999999999995,3.1719999999999975,0.244,18,11,8,2,149,29,14,2,6,0,21,5.25,"7,14",1,L,0.20838255033557046,0.22717241379310343,0.22657142857142856,0.122
14,3,6,1,11,0.061,1,1,66,71,92,63,0.7319999999999998,0.488,2.683999999999998,0.122,4,2,7,1,6,2,7,1,4,0.5,27,3.75,11,1,L,0.20996842105263155,0.244,0.38342857142857134,0.122
14,4,7,1,1,50.75199999999996,17,209,75,74,54,24,52.09399999999996,3.476999999999997,1.8299999999999987,2.9889999999999977,20,11,10,10,214,17,11,18,3,0,16,4,11,1,L,0.24342990654205604,0.20452941176470585,0.16636363636363635,0.16605555555555554
14,4,8,1,11,2.683999999999998,9,11,86,90,3,6,18.482999999999986,0.9149999999999996,3.2939999999999974,2.622999999999998,20,1,11,10,72,1,15,10,4,0,18,4.5,0,1,L,0.2478125,0.30499999999999994,0.21959999999999996,0.2622999999999999
14,5,9,1,11,13.17599999999999,19,73,70,66,77,68,13.846999999999989,3.1109999999999975,2.0739999999999985,1.463999999999999,20,10,7,5,77,19,8,5,4,0.5,27,3.75,11,1,L,0.17983116883116881,0.16373684210526315,0.25925,0.29279999999999995
14,5,10,1,3,32.08599999999998,19,145,34,36,9,90,33.793999999999976,3.903999999999997,7.807999999999994,1.8299999999999987,20,12,12,6,155,19,28,7,5,0,19,4.75,11,1,L,0.21802580645161287,0.2054736842105263,0.27885714285714286,0.2614285714285714
14,6,11,1,11,2.683999999999998,11,14,72,71,21,62,3.9039999999999973,2.9889999999999977,8.905999999999993,0.8539999999999996,14,8,16,6,17,11,39,6,4,0.5,30,4.5,11,1,L,0.2003108108108108,0.19994444444444442,0.2193653846153846,0.14233333333333334
14,6,12,1,3,37.57599999999997,14,168,29,5,54,53,42.51699999999997,18.482999999999986,1.1589999999999994,0.366,20,19,6,2,183,75,6,2,5,0,19,4.75,11,1,L,0.2323333333333333,0.24643999999999996,0.19316666666666665,0.183
14,7,13,1,11,3.842999999999997,12,16,47,1,111,66,58.31599999999995,2.0129999999999986,0.061,0.061,20,7,1,1,246,8,1,1,4,0,17,4.25,0,1,L,0.22493749999999998,0.2519565217391304,0.061,0.061
14,7,14,1,3,14.883999999999988,16,70,35,59,102,103,15.554999999999987,10.369999999999992,7.319999999999994,5.123999999999996,18,14,13,14,72,38,22,23,5,0,13,3.25,0,1,L,0.21604166666666666,0.27289473684210525,0.3327272727272727,0.22278260869565217
14,8,15,1,8,23.72899999999998,13,96,102,99,98,104,23.78999999999998,0.488,1.8909999999999987,1.1589999999999994,14,3,8,4,97,4,11,4,2,1,24,2,8,1,L,0.24525773195876285,0.122,0.1719090909090909,0.28974999999999995
14,8,16,1,1,41.05299999999997,19,216,82,80,73,18,41.96799999999997,0.244,0.9759999999999995,6.648999999999995,20,2,4,14,221,2,5,28,3,0.5,24,3.75,"1,8",1,L,0.18990045248868778,0.122,0.19519999999999998,0.2374642857142857
14,9,17,1,1,31.963999999999974,20,143,84,76,22,60,32.51299999999998,2.8669999999999978,4.330999999999997,8.417999999999994,20,7,10,12,147,10,16,33,3,0,16,4,8,1,L,0.2211768707482993,0.28669999999999995,0.27068749999999997,0.25509090909090903
14,9,18,1,8,30.865999999999975,20,137,97,105,107,101,30.987999999999975,0.6709999999999998,1.2199999999999993,4.208999999999997,20,3,7,11,138,3,7,18,2,1,24,2,8,1,L,0.22455072463768114,0.22366666666666665,0.17428571428571427,0.23383333333333334
14,10,19,1,13,27.876999999999978,19,118,110,91,8,59,28.242999999999977,7.014999999999994,2.805999999999998,9.027999999999993,20,13,6,14,119,29,10,37,2,0,15,3.75,8,1,L,0.2373361344537815,0.24189655172413788,0.28059999999999996,0.24399999999999997
14,10,20,1,8,1.646999999999999,7,7,104,100,108,77,2.8059999999999983,1.2809999999999993,1.0979999999999994,4.208999999999997,12,6,3,9,12,6,4,20,2,0.5,15,2.25,8,1,L,0.22968367346938773,0.21349999999999997,0.27449999999999997,0.21045
14,11,21,1,12,50.87399999999996,17,220,1,3,40,12,53.61899999999996,5.7949999999999955,0.061,1.0979999999999994,20,13,1,8,237,25,1,9,5,0.5,41,5.75,"12,8",1,L,0.2262405063291139,0.23179999999999998,0.061,0.122
14,11,22,1,8,41.90699999999997,20,203,105,97,74,76,42.21199999999997,1.0369999999999995,6.953999999999994,2.439999999999998,20,4,12,11,204,4,29,15,2,0,10,2.5,12,1,L,0.20692156862745095,0.25925,0.23979310344827584,0.16266666666666665
14,12,23,1,12,25.00999999999998,19,114,37,40,21,96,25.68099999999998,1.9519999999999986,14.822999999999988,2.3789999999999982,20,9,17,8,118,10,69,11,5,0,19,4.75,0,1,L,0.21763559322033896,0.19519999999999998,0.21482608695652172,0.21627272727272723
14,12,24,1,3,118.34000000000623,12,458,113,33,57,51,118.52300000000623,3.476999999999997,1.2199999999999993,0.183,13,10,4,1,459,13,5,1,5,0,15,3.75,0,1,L,0.2582200435729847,0.2674615384615384,0.24399999999999997,0.183
15,1,1,1,12,19.397999999999985,17,103,48,66,70,67,24.64399999999998,10.552999999999992,1.585999999999999,2.3179999999999983,20,15,7,9,118,46,7,14,5,0.5,29,4.25,12,1,L,0.20884745762711862,0.22941304347826083,0.22657142857142856,0.16557142857142856
15,1,2,1,3,42.39499999999997,9,173,36,30,31,27,44.956999999999965,0.061,0.7319999999999998,0.6709999999999998,19,1,2,3,185,1,2,3,5,1,60,5,"3,12",1,L,0.24301081081081077,0.061,0.3659999999999999,0.22366666666666665
15,2,3,1,3,3.2939999999999974,12,18,25,16,13,18,5.367999999999996,20.007999999999985,5.123999999999996,4.330999999999997,20,19,13,11,31,86,20,15,5,0.5,41,5.75,"3,12",1,L,0.21037179487179486,0.22504854368932037,0.2562,0.2887333333333333
15,2,4,1,12,30.804999999999975,19,145,43,39,37,38,34.769999999999975,0.183,0.6709999999999998,1.9519999999999986,20,3,4,5,157,3,4,8,5,1,60,5,"12,3",1,L,0.22146496815286623,0.061,0.16775,0.244
15,3,5,1,3,14.700999999999988,17,69,29,32,36,25,14.944999999999988,1.646999999999999,0.061,4.879999999999996,19,5,1,11,71,7,1,25,5,1,60,5,"3,12",1,L,0.1973529411764706,0.23044444444444445,0.20952173913043476,0.19519999999999998
15,3,6,1,12,24.58299999999998,19,118,47,37,38,4,29.645999999999976,2.561999999999998,1.8909999999999987,3.1719999999999975,20,11,7,6,141,12,7,6,5,0.5,36,5.25,"12,3",1,L,0.21025531914893614,0.2135,0.2701428571428571,0.5286666666666665
15,4,7,1,0,0,0,0,87,110,50,116,0.9759999999999995,1.3419999999999992,0.305,0.5489999999999999,3,7,2,4,3,9,2,4,0,0,11,2.75,12,1,L,0.21290196078431373,0.1491111111111111,0.1525,0.13724999999999998
15,4,8,1,12,5.489999999999996,9,22,5,3,4,6,20.495999999999984,41.72399999999997,0.183,0.122,20,19,2,2,80,164,2,2,5,1,72,6,12,1,L,0.25889534883720927,0.25364971751412424,0.08133333333333333,0.24134782608695649
15,5,9,1,8,29.462999999999976,14,128,98,104,106,105,30.194999999999975,1.2199999999999993,4.086999999999997,1.585999999999999,17,4,7,8,131,5,14,12,2,1,24,2,"8,12",1,L,0.23049618320610685,0.24399999999999994,0.29192857142857137,0.13216666666666665
15,5,10,1,12,0.366,3,3,45,37,76,14,2.8059999999999983,0.9759999999999995,16.16499999999999,2.622999999999998,11,5,17,12,13,6,66,14,5,0,19,4.75,8,1,L,0.22001123595505617,0.13724999999999998,0.2449242424242424,0.18735714285714286
15,6,11,1,7,7.8689999999999936,13,41,6,10,77,12,7.9299999999999935,12.80999999999999,0.427,0.061,14,18,2,1,42,60,2,1,6,0.5,39,5.25,"7,8",1,L,0.1888095238095238,0.21349999999999997,0.2135,0.061
15,6,12,1,8,1.3419999999999992,7,7,13,45,88,15,59.65799999999995,0.183,0.061,0.061,20,2,1,1,274,2,1,1,2,0,20,5,7,1,L,0.21625602409638553,0.19824999999999998,0.1917142857142857,0.061
15,7,13,1,7,12.44399999999999,16,59,1,6,3,10,12.50499999999999,0.488,13.41999999999999,1.0979999999999994,17,3,17,3,60,3,69,3,6,1,72,6,7,1,L,0.21011111111111108,0.16266666666666665,0.1944927536231884,0.3659999999999998
15,7,14,1,8,66.49000000000024,17,292,97,75,108,37,67.46600000000024,2.500999999999998,5.062999999999996,4.6969999999999965,20,9,13,15,296,11,22,23,2,0,12,3,7,1,L,0.22792567567567565,0.22736363636363632,0.2301363636363636,0.20421739130434782
15,8,15,1,2,56.546999999999954,13,244,13,51,113,88,206.60700000000986,0.366,0.6709999999999998,0.061,20,4,2,1,858,4,2,1,4,0,15,3.75,7,1,L,0.24080069930069928,0.0915,0.3354999999999999,0.061
15,8,16,1,7,0,0,0,1,4,12,26,0.061,4.635999999999997,0.366,63.43999999999995,1,13,2,16,1,24,2,270,6,0.5,41,5.75,7,1,L,0.2255151515151515,0.19824999999999998,0.20739999999999997,0.23499630996309961
15,9,17,1,2,41.29699999999997,12,181,57,74,59,46,41.41899999999997,2.439999999999998,1.0369999999999995,6.709999999999995,13,6,4,13,182,8,4,37,4,0,16,4,7,1,L,0.22757692307692307,0.30499999999999994,0.25925,0.18135135135135136
15,9,18,1,7,0.6709999999999998,4,5,11,2,7,94,2.073999999999999,2.9889999999999977,1.7079999999999989,13.11499999999999,12,10,8,15,13,14,9,59,6,0.5,39,5.25,7,1,L,0.1882285714285714,0.21146666666666666,0.1783076923076923,0.2222881355932203
15,10,19,1,7,13.602999999999989,18,63,8,5,104,1,18.421999999999986,4.7579999999999965,3.9649999999999967,3.0499999999999976,20,17,10,10,85,26,13,15,6,0.5,38,5,7,1,L,0.21672941176470586,0.183,0.30499999999999994,0.20333333333333334
15,10,20,1,1,59.84099999999995,17,250,60,119,14,110,82.89899999999993,0.061,171.7150000000124,0.5489999999999999,20,1,15,2,343,1,688,2,3,0,14,3.5,7,1,L,0.2416880466472303,0.061,0.24958575581395345,0.27449999999999997
16,1,1,1,12,43.980999999999966,18,193,48,69,67,84,44.407999999999966,20.800999999999984,1.463999999999999,3.3549999999999973,19,17,9,12,194,80,9,17,5,0,16,4,0,1,L,0.22890721649484533,0.2600125,0.16266666666666665,0.1973529411764706
16,1,2,1,15,17.933999999999987,10,84,16,52,21,89,17.994999999999987,4.147999999999997,6.221999999999995,5.855999999999995,11,9,12,12,85,15,24,19,6,0,19,4.75,0,1,L,0.21170588235294116,0.2765333333333333,0.25925,0.30821052631578943
16,2,3,1,2,79.30000000000172,9,316,51,49,16,32,79.97100000000172,0.305,1.646999999999999,4.7579999999999965,13,3,7,12,320,3,9,17,4,0,19,4.75,0,1,L,0.24990937499999996,0.10166666666666667,0.183,0.2798823529411764
16,2,4,1,11,13.602999999999989,20,72,66,83,78,82,25.86399999999998,12.26099999999999,1.585999999999999,10.430999999999992,20,18,3,15,121,49,3,33,4,0.5,22,3.25,11,1,L,0.21375206611570247,0.2502244897959183,0.5286666666666665,0.31609090909090903
16,3,5,1,11,1.3419999999999992,6,6,70,66,71,32,2.5009999999999986,1.585999999999999,1.3419999999999992,5.001999999999996,13,6,4,13,15,6,4,22,4,0.5,29,4.25,11,1,L,0.197758064516129,0.18590476190476188,0.27788888888888885,0.22736363636363635
16,3,6,1,13,14.639999999999988,20,55,119,16,56,18,21.044999999999984,11.284999999999991,11.040999999999991,4.6969999999999965,20,19,17,15,83,58,54,20,2,0,18,4.5,11,1,L,0.2535542168674699,0.19456896551724137,0.20446296296296296,0.23484999999999995
16,4,7,1,11,3.537999999999997,9,14,1,44,87,39,255.40700000002167,0.183,0.061,1.524999999999999,20,2,1,6,1085,2,1,6,4,0,19,4.75,0,1,L,0.23317223198594023,0.2399333333333333,0.061,0.25416666666666665
16,4,8,1,8,40.13799999999997,10,165,107,106,14,104,40.68699999999997,9.332999999999993,5.062999999999996,0.427,13,15,12,3,168,37,16,3,2,0.5,18,3,8,1,L,0.2421845238095238,0.2522432432432432,0.3164374999999999,0.14233333333333334
16,5,9,1,8,34.403999999999975,20,159,107,105,101,51,35.074999999999974,0.061,3.537999999999997,0.7319999999999998,20,1,10,3,163,1,17,4,2,0.5,16,2.5,8,1,L,0.21518404907975458,0.061,0.20811764705882352,0.183
16,5,10,1,7,15.615999999999987,16,76,3,12,9,72,15.676999999999987,1.463999999999999,0.9759999999999995,9.820999999999993,17,5,5,13,77,6,7,43,6,0.5,40,5.5,"7,8",1,L,0.20359740259740258,0.244,0.13942857142857143,0.22839534883720927
16,6,11,1,7,9.576999999999993,15,32,2,9,7,92,9.637999999999993,0.305,2.744999999999998,7.014999999999994,16,1,8,14,33,1,10,34,6,0.5,39,5.25,"7,8",1,L,0.22657142857142856,0.24806666666666663,0.29904878048780487,0.2063235294117647
16,6,12,1,8,20.312999999999985,16,89,15,104,36,82,51.54499999999996,0.244,0.122,0.5489999999999999,20,2,2,2,218,2,2,2,2,0,16,4,7,1,L,0.229286432160804,0.22434444444444443,0.061,0.27449999999999997
16,7,13,1,7,34.098999999999975,19,160,6,1,3,9,34.586999999999975,2.683999999999998,5.611999999999996,0.7319999999999998,20,10,11,3,162,17,25,3,6,1,72,6,7,1,L,0.21349999999999997,0.15788235294117647,0.22447999999999999,0.244
16,7,14,1,2,51.60599999999996,20,227,50,56,75,60,51.84999999999996,0.427,1.8909999999999987,0.5489999999999999,20,2,4,2,229,2,5,3,4,0.5,27,3.75,"2,7",1,L,0.2264192139737991,0.2135,0.37819999999999987,0.183
16,8,15,1,7,1.8909999999999987,10,12,1,9,11,39,1.9519999999999986,3.476999999999997,0.9149999999999996,3.9649999999999967,11,13,3,14,13,15,3,24,6,0.5,41,5.75,"7,2",1,L,0.20070967741935483,0.2113720930232558,0.19607142857142856,0.16520833333333332
16,8,16,1,2,26.16899999999998,19,115,20,18,51,53,30.194999999999975,3.903999999999997,0.122,0.6709999999999998,20,9,1,3,129,11,1,3,4,0,20,5,7,1,L,0.23406976744186045,0.35490909090909084,0.122,0.22366666666666665
16,9,17,1,7,0.061,1,1,10,6,3,12,0.7929999999999997,0.305,5.7339999999999955,1.4029999999999991,6,2,13,4,7,2,25,4,6,1,72,6,7,1,L,0.186734693877551,0.1525,0.22935999999999998,0.35074999999999995
16,9,18,1,15,32.57399999999998,13,154,17,24,20,58,32.63499999999998,0.366,16.652999999999988,0.061,14,1,15,1,155,1,63,1,6,0.5,40,5.5,"15,7",1,L,0.21054838709677418,0.366,0.2643333333333333,0.061
16,10,19,1,15,0.061,1,1,14,91,114,13,4.330999999999997,11.95599999999999,4.452999999999997,0.244,13,16,12,3,20,49,13,3,6,0,17,4.25,7,1,L,0.18391044776119403,0.24399999999999997,0.34253846153846146,0.08133333333333333
16,10,20,1,7,0,0,0,9,8,1,7,0.9149999999999996,0.061,2.9889999999999977,3.842999999999997,6,1,11,11,8,1,13,14,6,1,72,6,7,1,L,0.20370987654320985,0.061,0.2299230769230769,0.27449999999999997
17,1,1,1,13,60.20699999999995,12,257,112,119,111,20,62.03699999999995,0.122,0.8539999999999996,2.683999999999998,20,1,4,10,265,1,4,16,2,0.5,18,3,13,1,L,0.2341018867924528,0.122,0.2135,0.16774999999999998
17,1,2,1,14,30.499999999999975,18,138,87,96,93,105,30.926999999999975,2.439999999999998,0.122,4.208999999999997,20,9,1,12,140,13,1,22,3,0.5,20,2.75,"14,13",1,L,0.22090714285714283,0.18769230769230769,0.122,0.1913181818181818
17,2,3,1,14,1.4029999999999991,7,7,88,89,22,68,2.866999999999998,3.1109999999999975,13.907999999999989,2.683999999999998,13,9,15,10,13,14,56,12,3,0,16,4,13,1,L,0.2135,0.2196,0.24835714285714283,0.22366666666666665
17,2,4,1,13,0,0,0,114,43,6,2,1.0369999999999995,6.526999999999995,1.2809999999999993,8.417999999999994,4,13,6,12,4,26,6,33,2,0,19,4.75,0,1,L,0.21211363636363634,0.22825806451612898,0.2135,0.2550909090909091
17,3,5,1,14,43.980999999999966,15,208,89,14,111,117,46.054999999999964,12.38299999999999,4.879999999999996,13.663999999999989,20,16,13,17,216,52,18,47,3,0,13,3.25,0,1,L,0.21321759259259257,0.23813461538461536,0.2711111111111111,0.2907234042553191
17,3,6,1,3,16.34799999999999,18,93,31,27,36,67,17.872999999999987,0.366,0.061,11.406999999999991,20,3,1,14,101,3,1,46,5,0.5,34,4.75,3,1,L,0.17696039603960395,0.122,0.061,0.24797826086956518
17,4,7,1,11,40.50399999999997,12,207,94,69,67,93,41.84599999999997,0.305,0.183,1.646999999999999,16,1,2,2,212,2,3,2,4,0,14,3.5,3,1,L,0.19738679245283017,0.1525,0.061,0.8234999999999996
17,4,8,1,3,1.3419999999999992,8,8,32,97,2,76,13.29799999999999,6.953999999999994,8.173999999999994,13.11499999999999,20,14,14,17,56,25,35,60,5,0,16,4,0,1,L,0.22013043478260869,0.27815999999999996,0.23354285714285714,0.21858333333333332
17,5,9,1,8,69.90600000000063,8,303,101,71,63,107,72.34600000000063,1.463999999999999,8.356999999999994,2.8669999999999978,20,5,17,15,318,7,37,16,2,0,12,3,0,1,L,0.22750314465408802,0.20914285714285713,0.22586486486486484,0.1791875
17,5,10,1,2,18.238999999999987,18,72,57,59,53,88,19.519999999999985,0.488,1.0369999999999995,0.7319999999999998,20,2,5,2,75,2,6,2,4,0.5,27,3.75,2,1,L,0.26026666666666665,0.244,0.17283333333333334,0.36599999999999994
17,6,11,1,2,4.818999999999996,12,27,60,54,2,52,7.746999999999995,0.183,6.404999999999995,2.8669999999999978,20,1,13,10,41,1,28,12,4,0.5,30,4.5,2,1,L,0.2358170731707317,0.1525,0.20559259259259258,0.23891666666666664
17,6,12,1,15,12.93199999999999,20,57,107,16,19,21,17.079999999999988,3.476999999999997,2.1349999999999985,0.061,20,8,10,1,72,8,13,1,6,0.5,38,5,"15,2",1,L,0.2372222222222222,0.43462499999999993,0.16423076923076924,0.061
17,7,13,1,15,0.061,1,1,20,60,18,43,0.122,1.646999999999999,5.489999999999996,0.122,2,6,13,1,2,7,27,1,6,0,21,5.25,0,1,L,0.19838260869565216,0.2296470588235294,0.20464516129032256,0.122
17,7,14,1,8,23.118999999999982,18,115,99,106,96,2,23.179999999999982,7.990999999999993,2.1959999999999984,31.536999999999974,19,16,8,17,116,30,8,126,2,0,13,3.25,0,1,L,0.19982758620689653,0.26636666666666664,0.27449999999999997,0.2502936507936508
17,8,15,1,14,16.835999999999988,20,78,87,90,94,96,17.079999999999988,0.061,2.3179999999999983,0.6099999999999999,20,1,5,5,79,1,5,5,3,1,36,3,14,1,L,0.2162025316455696,0.061,0.4635999999999998,0.122
17,8,16,1,3,67.77100000000038,8,269,26,4,27,75,67.95400000000039,8.661999999999994,2.1959999999999984,2.2569999999999983,10,13,8,7,271,33,9,8,5,0,19,4.75,14,1,L,0.2507527675276752,0.26248484848484843,0.244,0.28212499999999996
17,9,17,1,2,53.00899999999996,17,218,51,59,54,55,53.67999999999996,0.6099999999999999,0.6709999999999998,4.269999999999997,20,2,4,13,221,2,5,22,4,1,48,4,"2,14",1,L,0.24289592760180995,0.305,0.13419999999999999,0.1940909090909091
17,9,18,1,14,14.761999999999988,19,82,96,86,35,9,20.190999999999985,3.781999999999997,4.147999999999997,0.488,20,12,12,2,102,19,22,2,3,0,17,4.25,2,1,L,0.19795098039215683,0.19905263157894734,0.18854545454545452,0.244
17,10,19,1,2,21.654999999999983,16,101,57,49,3,112,31.414999999999978,0.366,1.463999999999999,1.585999999999999,20,3,4,7,134,3,6,8,4,0,16,4,0,1,L,0.23444029850746267,0.122,0.24399999999999997,0.19824999999999998
17,10,20,1,11,65.94100000000017,13,286,69,88,15,68,66.18500000000017,4.940999999999996,6.160999999999995,0.366,14,11,14,3,287,17,28,4,4,0,17,4.25,0,1,L,0.23060975609756096,0.29064705882352937,0.22003571428571422,0.0915
17,11,21,1,12,11.406999999999991,19,57,1,4,42,51,46.237999999999964,9.454999999999993,0.183,0.427,20,15,2,2,192,34,2,2,5,0,21,5.25,0,1,L,0.24082291666666664,0.2780882352941176,0.0915,0.2135
17,11,22,1,8,11.223999999999991,18,56,98,92,26,99,12.32199999999999,5.7949999999999955,5.428999999999996,11.162999999999991,20,14,13,14,60,24,27,46,2,0,12,3,0,1,L,0.20536666666666664,0.2414583333333333,0.20107407407407404,0.24267391304347824
18,1,1,1,3,12.13899999999999,12,48,25,27,31,30,12.19999999999999,0.061,1.0979999999999994,1.8909999999999987,13,1,3,7,49,1,3,8,5,1,60,5,3,1,L,0.24897959183673468,0.061,0.366,0.236375
18,1,2,1,14,20.983999999999984,20,105,93,90,89,85,21.959999999999983,2.1349999999999985,0.244,0.183,20,7,2,2,112,9,2,2,3,1,36,3,"14,3",1,L,0.19607142857142856,0.2372222222222222,0.122,0.0915
18,2,3,1,8,74.23700000000113,13,322,108,37,69,80,76.73800000000114,23.48499999999998,0.183,2.805999999999998,19,18,1,9,331,91,1,13,2,0,14,3.5,"14,3",1,L,0.23183685800604226,0.25807692307692304,0.183,0.21584615384615383
18,2,4,1,0,0,0,0,29,111,93,58,0.061,0.244,0.7319999999999998,0.7929999999999997,1,1,2,4,1,1,2,5,0,0,14,3.5,0,1,L,0.20792473118279567,0.244,0.3659999999999999,0.1586
18,3,5,1,2,23.240999999999982,17,91,60,50,47,7,23.42399999999998,1.9519999999999986,5.977999999999995,1.3419999999999992,18,7,11,7,92,8,22,7,4,0,19,4.75,0,1,L,0.25460869565217387,0.24399999999999997,0.2717272727272727,0.1917142857142857
18,3,6,1,14,52.52099999999996,11,238,90,62,20,67,53.31399999999996,5.977999999999995,8.478999999999994,0.244,14,15,14,2,241,28,26,2,3,0,17,4.25,0,1,L,0.22121991701244811,0.2135,0.3261153846153846,0.122
18,4,7,1,8,23.118999999999982,19,104,107,44,10,40,23.42399999999998,6.526999999999995,1.524999999999999,14.883999999999988,20,14,5,14,105,26,6,59,2,0,18,4.5,0,1,L,0.22308571428571428,0.2510384615384615,0.25416666666666665,0.2522711864406779
18,4,8,1,13,36.59999999999997,17,158,110,111,116,53,39.16199999999997,1.2199999999999993,0.7929999999999997,10.186999999999992,20,3,4,11,169,3,4,34,2,0.5,16,2.5,13,1,L,0.23172781065088754,0.4066666666666667,0.19824999999999998,0.2996176470588235
18,5,9,1,2,15.920999999999987,18,79,56,60,59,15,16.591999999999988,0.6709999999999998,2.805999999999998,9.149999999999993,20,5,10,14,82,5,14,41,4,0.5,30,4.5,"2,13",1,L,0.20234146341463413,0.13419999999999999,0.20042857142857143,0.22317073170731705
18,5,10,1,13,25.43699999999998,19,122,115,110,79,36,25.80299999999998,2.500999999999998,1.1589999999999994,1.524999999999999,20,5,4,5,125,7,4,5,2,0,12,3,2,1,L,0.206424,0.3572857142857142,0.28975,0.305
18,6,11,1,2,10.918999999999992,17,58,57,26,100,94,12.50499999999999,14.517999999999988,5.672999999999996,12.07799999999999,20,17,13,12,64,59,26,53,4,0,14,3.5,0,1,L,0.19539062499999998,0.24606779661016945,0.21819230769230769,0.22788679245283014
18,6,12,1,15,12.74899999999999,20,69,16,20,18,21,17.018999999999988,0.6099999999999999,1.0979999999999994,2.1959999999999984,20,2,3,5,82,2,3,7,6,1,72,6,15,1,L,0.20754878048780487,0.30499999999999994,0.36599999999999994,0.31371428571428567
18,7,13,1,7,7.807999999999994,15,40,11,1,3,7,8.844999999999994,1.1589999999999994,0.305,0.061,20,6,3,1,46,7,3,1,6,1,72,6,"7,15",1,L,0.19228260869565217,0.16557142857142856,0.10166666666666667,0.061
18,7,14,1,15,17.750999999999987,15,73,19,52,24,22,17.811999999999987,1.646999999999999,3.2329999999999974,1.0979999999999994,16,4,9,3,74,5,14,3,6,0.5,40,5.5,"15,7",1,L,0.22473684210526315,0.27449999999999997,0.240453488372093,0.366
18,8,15,1,7,12.62699999999999,17,66,1,3,78,64,12.99299999999999,0.6709999999999998,7.563999999999994,1.3419999999999992,19,2,15,5,68,3,40,8,6,0,19,4.75,15,1,L,0.237530303030303,0.1586,0.1917142857142857,0.16775
18,8,16,1,15,0.9759999999999995,7,7,22,19,17,40,1.0369999999999995,2.0129999999999986,2.3789999999999982,3.0499999999999976,8,6,8,10,8,8,11,13,6,0.5,41,5.75,15,1,L,0.1764642857142857,0.21146666666666664,0.20435,0.2022631578947368
18,9,17,1,15,9.759999999999993,19,46,13,15,17,20,10.796999999999992,0.183,0.244,1.2809999999999993,20,2,2,4,49,2,2,5,6,1,72,6,15,1,L,0.2203469387755102,0.0915,0.122,0.2562
18,9,18,1,7,8.844999999999994,11,47,2,4,6,41,9.637999999999993,1.463999999999999,1.0369999999999995,1.2199999999999993,14,7,5,3,50,8,6,3,6,0.5,41,5.75,"7,15",1,L,0.19276,0.183,0.17283333333333334,0.4066666666666666
18,10,19,1,7,0,0,0,2,5,7,46,0.061,6.709999999999995,0.5489999999999999,0.305,1,11,4,2,1,21,4,2,6,0.5,41,5.75,"7,15",1,L,0.215,0.23592647058823524,0.13724999999999998,0.1525
18,10,20,1,0,0,0,0,50,21,13,15,1.1589999999999994,2.439999999999998,1.7079999999999989,0.5489999999999999,5,6,7,2,6,8,8,2,0,0.5,40,5.5,"15,7",1,L,0.2275135135135135,0.30499999999999994,0.2135,0.27449999999999997
18,11,21,1,7,2.683999999999998,14,19,6,9,2,36,6.343999999999995,2.561999999999998,1.8909999999999987,2.805999999999998,20,11,9,10,35,13,10,11,6,0.5,41,5.75,"7,15",1,L,0.1895945945945946,0.18074074074074073,0.21996969696969695,0.18720689655172412
18,11,22,1,15,0.6709999999999998,4,4,18,14,19,20,2.8059999999999983,3.1719999999999975,1.2199999999999993,2.3789999999999982,13,7,7,7,13,11,7,8,6,1,72,6,"15,7",1,L,0.22699999999999998,0.2883636363636363,0.1742857142857143,0.29737499999999994
18,12,23,1,7,6.8929999999999945,16,28,72,42,94,114,11.101999999999991,4.208999999999997,1.0369999999999995,1.8299999999999987,20,12,5,5,53,18,5,6,6,0,14,3.5,15,1,L,0.23253383458646615,0.24399999999999997,0.20739999999999997,0.30499999999999994
18,12,24,1,15,0.244,1,1,15,20,22,56,9.759999999999993,0.061,2.561999999999998,0.6709999999999998,17,1,8,3,37,1,10,4,6,0.5,40,5.5,15,1,L,0.2219722222222222,0.16266666666666665,0.25619999999999993,0.16775
19,1,1,1,7,10.247999999999992,16,54,5,10,12,107,10.308999999999992,11.040999999999991,1.8909999999999987,12.44399999999999,17,16,8,16,55,43,11,59,6,0.5,38,5,7,1,L,0.18743636363636362,0.2567674418604651,0.1719090909090909,0.21091525423728813
19,1,2,1,13,9.210999999999993,20,54,119,115,67,111,10.003999999999992,0.5489999999999999,25.49799999999998,0.488,20,1,16,2,57,1,98,2,2,0.5,16,2.5,"13,7",1,L,0.17550877192982456,0.5489999999999999,0.26018367346938776,0.244
19,2,3,1,13,2.744999999999998,14,22,111,17,16,115,3.7209999999999974,8.600999999999994,20.678999999999984,0.061,16,14,18,1,24,29,79,1,2,0,16,4,7,1,L,0.1973529411764706,0.22569999999999998,0.261759493670886,0.061
19,2,4,1,7,0.061,1,1,7,1,2,11,0.8539999999999996,1.9519999999999986,0.488,0.061,5,7,3,1,5,7,3,1,6,1,72,6,7,1,L,0.2274428571428571,0.27885714285714286,0.16266666666666665,0.061
19,3,5,1,15,10.674999999999992,18,55,15,16,17,21,22.752999999999982,0.244,0.7319999999999998,0.244,20,3,2,2,102,3,3,2,6,1,72,6,"15,7",1,L,0.22306862745098038,0.08133333333333333,0.244,0.122
19,3,6,1,7,26.96199999999998,20,146,8,9,4,12,28.547999999999977,0.427,4.818999999999996,3.2939999999999974,20,1,15,11,153,2,27,15,6,1,72,6,"7,15",1,L,0.18658823529411764,0.2135,0.1784814814814815,0.2196
19,4,7,1,7,11.101999999999991,18,43,1,9,6,12,11.162999999999991,0.6099999999999999,2.561999999999998,0.427,19,4,9,2,44,4,9,2,6,1,72,6,"7,15",1,L,0.23515267175572516,0.1525,0.2846666666666666,0.2135
19,4,8,1,15,18.116999999999987,19,88,22,24,21,92,22.203999999999983,3.2329999999999974,3.2939999999999974,12.62699999999999,20,8,13,15,106,11,20,45,6,0.5,39,5.25,"15,7",1,L,0.20947169811320754,0.2939090909090909,0.16469999999999999,0.28059999999999996
19,5,9,1,15,21.715999999999983,17,100,15,20,28,116,25.25399999999998,2.9889999999999977,3.1719999999999975,1.9519999999999986,20,8,8,5,115,12,10,6,6,0,19,4.75,7,1,L,0.2196,0.2490833333333333,0.3171999999999999,0.32533333333333325
19,5,10,1,0,0,0,0,5,42,91,7,0.122,3.842999999999997,1.8909999999999987,1.2809999999999993,1,14,6,5,1,18,8,5,0,0,20,5,0,1,L,0.19936585365853657,0.2135,0.23637499999999995,0.2562
19,6,11,1,14,38.79599999999997,19,181,27,88,118,17,40.56499999999997,1.524999999999999,24.39999999999998,2.622999999999998,20,8,18,12,185,8,104,16,3,0,16,4,0,1,L,0.21927027027027024,0.190625,0.2346153846153846,0.16393749999999999
19,6,12,1,7,10.796999999999992,17,53,10,1,12,40,11.101999999999991,3.598999999999997,0.7319999999999998,8.539999999999994,19,13,4,16,55,22,4,42,6,0.5,41,5.75,7,1,L,0.20185454545454545,0.1635909090909091,0.183,0.2033333333333333
19,7,13,1,7,27.02299999999998,18,125,11,9,5,2,27.205999999999978,0.122,3.2329999999999974,4.452999999999997,20,1,11,10,127,1,17,17,6,1,72,6,7,1,L,0.21422047244094486,0.122,0.19017647058823528,0.26194117647058823
19,7,14,1,15,46.237999999999964,13,227,16,21,93,17,46.298999999999964,6.282999999999995,1.0369999999999995,1.2809999999999993,14,14,5,5,228,26,5,6,6,0.5,39,5.25,"15,7",1,L,0.2030657894736842,0.2416538461538461,0.2074,0.2135
19,8,15,1,7,0,0,0,4,8,10,12,1.1589999999999994,0.244,2.3179999999999983,0.6099999999999999,6,1,8,2,6,1,12,2,6,1,72,6,"7,15",1,L,0.17664583333333334,0.29279999999999995,0.20785185185185184,0.30499999999999994
19,8,16,1,15,0.305,1,1,20,16,114,110,2.073999999999999,0.061,3.2329999999999974,3.1109999999999975,8,1,8,12,10,1,12,16,6,0,16,4,7,1,L,0.19977499999999998,0.122,0.19519999999999998,0.19443749999999999
19,9,17,1,7,19.397999999999985,19,91,6,5,8,12,21.227999999999984,6.038999999999995,1.646999999999999,1.9519999999999986,20,14,8,7,97,30,9,8,6,1,72,6,7,1,L,0.21884536082474224,0.20129999999999998,0.183,0.244
19,9,18,1,14,9.576999999999993,18,51,13,14,39,16,90.5240000000019,13.41999999999999,0.061,0.7929999999999997,20,18,1,5,365,51,1,6,3,0.5,41,5.75,"14,7",1,L,0.24801095890410957,0.26313725490196077,0.061,0.13216666666666665
19,10,19,1,7,0,0,0,6,4,11,26,2.1959999999999984,3.903999999999997,0.244,0.6709999999999998,11,10,3,4,13,12,3,4,6,0.5,41,5.75,7,1,L,0.1749736842105263,0.3164375,0.1098,0.14352941176470588
19,10,20,1,12,16.16499999999999,17,70,44,20,45,82,17.018999999999988,10.003999999999992,0.6099999999999999,9.515999999999993,20,13,3,16,73,42,3,37,5,0,19,4.75,7,1,L,0.23313698630136984,0.23819047619047617,0.20333333333333334,0.25718918918918915
19,11,21,1,7,36.11199999999997,19,184,6,11,5,84,37.57599999999997,0.122,1.2199999999999993,2.1959999999999984,20,2,6,7,189,2,7,10,6,0.5,39,5.25,7,1,L,0.1988148148148148,0.061,0.17428571428571427,0.2196
19,11,22,1,13,88.45000000000277,14,382,118,42,20,37,92.41500000000278,0.9759999999999995,4.269999999999997,4.025999999999997,20,6,12,13,404,7,20,17,2,0,18,4.5,7,1,L,0.22874999999999998,0.13942857142857143,0.21349999999999997,0.23682352941176468
19,12,23,1,12,64.78200000000004,16,264,48,45,37,95,66.67300000000004,3.3549999999999973,0.061,1.1589999999999994,20,6,1,6,277,10,1,7,5,0.5,33,4.5,"12,7",1,L,0.24069675090252704,0.3354999999999999,0.061,0.16557142857142856
19,12,24,1,7,0.6099999999999999,3,3,12,107,8,5,3.232999999999998,3.0499999999999976,4.330999999999997,3.903999999999997,10,9,12,15,13,15,18,26,6,0.5,38,5,"7,12",1,L,0.21703623188405796,0.2033333333333333,0.24061111111111105,0.15015384615384614
20,1,1,1,1,13.907999999999989,17,61,13,18,14,75,46.176999999999964,0.061,0.183,0.061,20,1,1,1,186,1,1,1,3,0.5,39,5.25,1,1,L,0.248263440860215,0.061,0.183,0.061
20,1,2,1,7,25.98599999999998,14,121,11,8,2,3,26.04699999999998,1.3419999999999992,9.881999999999993,2.8669999999999978,15,7,14,8,122,8,40,10,6,1,72,6,"7,1",1,L,0.2135,0.16775,0.24704999999999996,0.28669999999999995
20,2,3,1,1,1.646999999999999,8,9,83,74,76,75,2.866999999999998,3.4159999999999973,0.7929999999999997,0.5489999999999999,14,10,4,4,16,20,5,4,3,1,36,3,"1,7",1,L,0.1751290322580645,0.1742857142857143,0.1586,0.13724999999999998
20,2,4,1,7,13.968999999999989,16,66,2,8,12,29,14.029999999999989,8.539999999999994,0.6099999999999999,2.561999999999998,17,14,5,9,67,35,5,10,6,0.5,41,5.75,"7,1",1,L,0.22972340425531915,0.22326,0.122,0.2562
20,3,5,1,3,0.061,1,1,33,32,26,57,1.0369999999999995,1.3419999999999992,0.488,0.122,6,8,5,1,6,13,6,1,5,0.5,34,4.75,3,1,L,0.22178804347826084,0.10323076923076922,0.08133333333333333,0.122
20,3,6,1,15,61.91499999999995,9,302,13,23,61,16,61.97599999999995,3.2939999999999974,2.622999999999998,2.622999999999998,10,13,10,7,303,17,13,10,6,0.5,40,5.5,"15,3",1,L,0.20454125412541252,0.19376470588235292,0.20176923076923076,0.2623
20,4,7,1,12,14.029999999999989,18,81,37,45,2,8,14.456999999999988,1.1589999999999994,8.844999999999994,1.1589999999999994,20,7,14,6,83,8,35,7,5,0,22,5.5,"15,3",1,L,0.17418072289156625,0.144875,0.25271428571428567,0.16557142857142856
20,4,8,1,14,0.061,1,1,91,57,107,53,0.7319999999999998,2.439999999999998,4.513999999999997,1.8299999999999987,5,8,11,7,5,9,20,9,3,0,13,3.25,0,1,L,0.19203703703703703,0.2711111111111111,0.22569999999999998,0.20333333333333334
20,5,9,1,14,67.22200000000032,12,278,89,48,94,8,69.23500000000033,0.6709999999999998,1.8909999999999987,8.478999999999994,17,3,8,16,285,3,12,40,3,0,17,4.25,0,1,L,0.24292982456140347,0.22366666666666665,0.15758333333333333,0.211975
20,5,10,1,15,27.632999999999978,11,103,23,19,14,20,27.876999999999978,1.524999999999999,1.463999999999999,8.905999999999993,13,8,8,14,105,9,10,31,6,1,72,6,15,1,L,0.26549523809523806,0.16944444444444445,0.1464,0.28729032258064513
20,6,11,1,1,31.597999999999974,20,143,76,73,80,42,31.841999999999974,2.500999999999998,5.184999999999996,7.502999999999994,20,9,14,12,144,12,23,35,3,0.5,23,3.5,"1,15",1,L,0.221125,0.20841666666666664,0.22543478260869562,0.21437142857142855
20,6,12,1,15,3.3549999999999973,12,14,15,13,23,97,3.4159999999999973,0.488,1.585999999999999,5.062999999999996,13,3,7,13,15,3,10,22,6,0.5,38,5,"15,1",1,L,0.18565217391304348,0.2296470588235294,0.19772413793103447,0.2370285714285714
20,7,13,1,1,1.585999999999999,8,9,12,3,4,6,24.21699999999998,0.183,2.0129999999999986,25.13199999999998,20,1,8,17,109,1,8,122,3,1,72,6,"1,15",1,L,0.21328671328671328,0.18977777777777777,0.25162499999999993,0.206
20,7,14,1,15,1.8299999999999987,10,12,19,14,20,21,2.256999999999999,9.393999999999993,0.122,3.598999999999997,13,17,1,8,15,39,1,17,6,1,72,6,"15,1",1,L,0.18877027027027027,0.24087179487179486,0.122,0.21170588235294116
20,8,15,1,15,0.061,1,1,21,27,105,29,1.8909999999999987,4.391999999999997,1.8909999999999987,0.366,9,11,5,2,9,14,6,2,6,0,18,4.5,0,1,L,0.2035181818181818,0.31371428571428567,0.3151666666666666,0.183
20,8,16,1,14,23.179999999999982,12,113,86,93,94,95,23.301999999999982,1.8299999999999987,0.7319999999999998,2.744999999999998,13,8,4,7,114,11,4,10,3,1,36,3,14,1,L,0.2044035087719298,0.16636363636363635,0.183,0.27449999999999997
20,9,17,1,3,34.525999999999975,18,154,106,108,107,2,45.932999999999964,3.903999999999997,21.105999999999984,1.2809999999999993,20,13,17,6,209,18,83,7,5,0.5,18,3,"3,14",1,L,0.21977511961722487,0.21688888888888888,0.254289156626506,0.183
20,9,18,1,14,27.08399999999998,19,110,93,95,86,48,27.937999999999978,1.2809999999999993,1.524999999999999,1.463999999999999,20,7,4,3,115,8,5,8,3,0.5,23,3.5,"14,3",1,L,0.24293913043478257,0.160125,0.30499999999999994,0.183
20,10,19,1,3,2.9279999999999977,14,15,35,33,2,55,3.4159999999999977,3.1719999999999975,13.724999999999989,4.635999999999997,16,10,17,11,17,14,60,20,5,0,20,5,14,1,L,0.21091525423728813,0.22794736842105262,0.2242162162162162,0.23179999999999998
20,10,20,1,14,18.543999999999986,20,90,92,61,99,39,22.264999999999983,2.683999999999998,11.467999999999991,0.6709999999999998,20,7,17,4,106,12,48,4,3,0,14,3.5,0,1,L,0.21004716981132074,0.22366666666666665,0.23891666666666664,0.16775
20,11,21,1,13,23.66799999999998,19,129,117,114,119,18,24.46099999999998,3.3549999999999973,8.722999999999994,16.469999999999988,20,11,16,17,133,16,42,71,2,0.5,18,3,13,1,L,0.1839172932330827,0.2096875,0.20769047619047615,0.23197183098591548
20,11,22,1,1,27.632999999999978,19,130,81,83,74,76,27.998999999999977,0.427,0.9759999999999995,1.8299999999999987,20,3,5,7,132,3,5,8,3,1,36,3,"1,13",1,L,0.21211363636363634,0.14233333333333334,0.19519999999999998,0.22874999999999995
21,1,1,1,15,21.532999999999983,15,93,13,23,20,29,21.593999999999983,5.916999999999995,1.0369999999999995,1.7079999999999989,16,14,6,5,94,24,8,5,6,0.5,41,5.75,15,1,L,0.22972340425531912,0.24654166666666666,0.129625,0.3415999999999999
21,1,2,1,8,82.10600000000204,13,330,99,48,79,97,82.77700000000205,1.0369999999999995,1.0979999999999994,0.183,15,5,3,1,332,5,5,1,2,0,12,3,15,1,L,0.24932831325301202,0.2074,0.2196,0.183
21,2,3,1,2,28.669999999999977,18,133,51,54,50,5,29.767999999999976,1.524999999999999,0.183,3.9649999999999967,20,7,2,13,141,8,2,17,4,0.5,30,4.5,"2,15",1,L,0.2111205673758865,0.190625,0.0915,0.23323529411764704
21,2,4,1,15,0,0,0,21,17,35,18,0.122,2.1959999999999984,9.576999999999993,1.7079999999999989,1,7,16,8,1,9,40,12,6,0.5,41,5.75,"15,2",1,L,0.19957608695652174,0.22794736842105262,0.23545999999999997,0.14233333333333334
21,3,5,1,2,41.54099999999997,19,171,57,51,59,37,41.60199999999997,0.488,0.183,6.526999999999995,20,3,1,9,172,4,1,24,4,0.5,29,4.25,"2,15",1,L,0.24187209302325577,0.122,0.183,0.2719583333333333
21,3,6,1,15,1.0979999999999994,4,4,14,17,20,100,1.3419999999999994,2.3179999999999983,3.0499999999999976,1.524999999999999,6,6,11,4,6,9,14,5,6,0.5,38,5,"15,2",1,L,0.2452978723404255,0.23819047619047617,0.20421739130434782,0.28212499999999996
