Subject,Round,Phase,afterbreak,Schema,Schema_RT,Schema_OB,Schema_AS,Cho_1,Cho_2,Cho_3,Cho_4,RT_1,RT_2,RT_3,RT_4,OB_1,OB_2,OB_3,OB_4,AS_1,AS_2,AS_3,AS_4,schema_payoff,AC,performance,payoff,breakR,type,dwellmean_1,dwellmean_2,dwellmean_3,dwellmean_4
1,1,1,1,2,26.96199999999998,15,111,53,51,15,24,27.876999999999978,1.9519999999999986,5.7949999999999955,9.759999999999993,20,6,16,15,117,6,29,32,4,0,20,5,1,L,0.23826495726495722,0.32533333333333325,0.19982758620689653,0.30499999999999994
1,1,2,1,11,24.82699999999998,20,124,69,71,85,94,33.915999999999976,2.9889999999999977,8.295999999999994,12.56599999999999,20,13,13,17,162,20,32,52,4,0,14,3.5,1,L,0.209358024691358,0.14945,0.25925,0.2416538461538461
1,2,3,1,12,19.214999999999986,20,96,38,47,51,23,19.946999999999985,4.269999999999997,1.524999999999999,3.9649999999999967,20,13,6,11,101,18,7,18,5,0,20,5,1,L,0.19749504950495048,0.2372222222222222,0.21785714285714286,0.22027777777777774
1,2,4,1,3,25.80299999999998,20,99,35,28,26,25,26.22999999999998,0.061,0.122,16.591999999999988,20,1,1,17,102,1,1,71,5,1,60,5,1,L,0.25715686274509797,0.061,0.122,0.2336901408450704
1,3,5,1,8,13.23699999999999,18,63,68,97,48,75,38.24699999999997,1.1589999999999994,0.6099999999999999,0.122,20,5,4,2,164,5,4,2,2,0,14,3.5,1,L,0.23321341463414633,0.2318,0.1525,0.061
1,3,6,1,15,10.186999999999992,15,48,24,89,15,17,12.01699999999999,30.011999999999976,2.561999999999998,2.439999999999998,20,19,9,8,56,122,12,12,6,0.5,39,5.25,1,L,0.2145892857142857,0.24599999999999997,0.21349999999999997,0.20333333333333334
1,4,7,1,15,27.510999999999978,18,148,15,20,19,114,27.876999999999978,1.8909999999999987,3.9649999999999967,0.427,20,4,10,5,150,7,13,5,6,0.5,38,5,1,L,0.18584666666666666,0.27014285714285713,0.30499999999999994,0.0854
1,4,8,1,2,17.201999999999988,19,79,55,12,56,59,18.299999999999986,3.0499999999999976,0.244,3.537999999999997,20,6,2,10,83,7,2,21,4,0.5,30,4.5,1,L,0.22048192771084335,0.43571428571428555,0.122,0.16847619047619047
1,5,9,1,2,38.12499999999997,16,161,43,40,81,106,45.871999999999964,1.585999999999999,3.1719999999999975,0.9759999999999995,20,5,14,7,202,6,17,7,4,0,15,3.75,1,L,0.22708910891089107,0.2643333333333333,0.18658823529411764,0.13942857142857143
1,5,10,1,3,17.628999999999987,19,91,35,26,28,31,21.776999999999983,2.3179999999999983,0.183,0.061,20,10,2,1,112,11,2,1,5,1,60,5,1,L,0.19443749999999999,0.21072727272727274,0.0915,0.061
1,6,11,1,3,27.632999999999978,16,140,35,72,95,71,30.438999999999975,19.763999999999985,1.7079999999999989,0.244,20,19,7,2,153,73,7,2,5,0,16,4,1,L,0.19894771241830064,0.2707397260273972,0.244,0.122
1,6,12,1,15,17.872999999999987,20,84,16,106,75,20,17.933999999999987,10.430999999999992,2.0129999999999986,0.244,20,15,9,2,85,49,10,2,6,0,17,4.25,1,L,0.21098823529411764,0.21287755102040815,0.20129999999999998,0.122
1,7,13,1,7,12.32199999999999,20,74,6,9,12,11,13.23699999999999,0.7929999999999997,0.7319999999999998,14.944999999999988,20,4,6,17,81,4,6,75,6,1,72,6,1,L,0.16341975308641976,0.19824999999999998,0.122,0.19926666666666668
1,7,14,1,12,20.983999999999984,18,103,45,42,16,75,22.264999999999983,2.2569999999999983,8.661999999999994,2.9279999999999977,20,7,14,8,107,10,39,14,5,0,19,4.75,1,L,0.20808411214953268,0.22569999999999998,0.2221025641025641,0.20914285714285713
1,8,15,1,8,25.37599999999998,17,129,97,83,61,10,26.96199999999998,9.027999999999993,6.099999999999995,7.441999999999994,20,15,14,11,134,35,23,20,2,0,15,3.75,1,L,0.20120895522388058,0.25794285714285714,0.2652173913043478,0.37209999999999993
1,8,16,1,13,17.079999999999988,20,99,112,119,113,110,21.471999999999984,0.183,0.6709999999999998,0.244,20,1,4,2,118,1,4,2,2,1,24,2,1,L,0.18196610169491526,0.183,0.16775,0.122
1,9,17,1,13,22.325999999999983,18,112,112,110,43,41,24.52199999999998,3.9649999999999967,0.9759999999999995,8.722999999999994,20,12,5,17,117,13,5,43,2,0,14,3.5,1,L,0.20958974358974358,0.30499999999999994,0.19519999999999998,0.20286046511627906
1,9,18,1,11,27.632999999999978,17,117,6,7,26,99,71.49199999999995,2.744999999999998,0.122,1.3419999999999992,20,12,2,5,283,13,2,6,4,0,19,4.75,1,L,0.25262190812720847,0.21115384615384614,0.061,0.22366666666666665
1,10,19,1,14,46.542999999999964,15,225,91,96,87,50,47.15299999999996,0.244,6.160999999999995,1.585999999999999,18,1,16,5,229,1,25,5,3,0.5,22,3.25,1,L,0.20590829694323143,0.244,0.24644,0.3171999999999999
1,10,20,1,8,19.275999999999986,19,86,4,79,77,5,53.49699999999996,0.7929999999999997,0.7319999999999998,1.0979999999999994,20,4,4,5,210,5,4,5,2,0,18,4.5,1,L,0.254747619047619,0.1586,0.183,0.2196
1,11,21,1,7,29.035999999999976,17,147,3,10,8,46,29.218999999999976,4.391999999999997,0.9759999999999995,2.622999999999998,20,12,6,8,150,21,7,12,6,0.5,41,5.75,1,L,0.19479333333333332,0.20914285714285713,0.13942857142857143,0.21858333333333332
1,11,22,1,15,14.029999999999989,20,79,23,22,18,29,15.188999999999988,1.524999999999999,8.661999999999994,4.940999999999996,20,5,14,10,84,8,41,15,6,0.5,41,5.75,1,L,0.18082142857142858,0.190625,0.21126829268292682,0.32939999999999997
2,1,1,1,15,18.116999999999987,20,90,14,17,19,27,18.177999999999987,7.319999999999994,0.061,4.147999999999997,20,14,1,8,91,28,1,9,6,0.5,41,5.75,1,L,0.19975824175824175,0.2614285714285714,0.061,0.4608888888888887
2,1,2,1,1,20.556999999999984,18,100,8,78,44,100,42.21199999999997,2.0739999999999985,1.0369999999999995,1.8299999999999987,20,6,7,4,175,8,7,5,3,0,16,4,1,L,0.24121142857142855,0.2592499999999999,0.14814285714285713,0.3659999999999998
2,2,3,1,3,24.70499999999998,18,130,75,82,81,2,50.20299999999996,5.855999999999995,24.64399999999998,3.476999999999997,20,15,18,11,240,28,108,16,5,0.5,24,3.75,1,L,0.20917916666666664,0.20914285714285713,0.22818518518518516,0.2173125
2,2,4,1,2,11.89499999999999,20,58,14,57,37,23,52.15499999999996,0.061,0.061,2.561999999999998,20,1,1,6,234,1,1,8,4,0,21,5.25,1,L,0.22288461538461538,0.061,0.061,0.3202499999999999
2,3,5,1,1,18.299999999999986,20,93,58,46,75,60,32.57399999999998,7.807999999999994,0.183,2.805999999999998,20,17,3,7,147,32,3,11,3,0,16,4,1,L,0.22159183673469385,0.24399999999999997,0.061,0.25509090909090903
2,3,6,1,11,27.388999999999978,20,131,72,61,64,65,30.011999999999976,1.463999999999999,1.7689999999999988,1.9519999999999986,20,8,5,7,143,9,7,7,4,1,48,4,1,L,0.20987412587412585,0.16266666666666665,0.25271428571428567,0.2788571428571428
2,4,7,1,15,20.434999999999985,20,104,13,14,21,20,20.495999999999984,5.367999999999996,0.305,0.366,20,12,2,3,105,21,2,3,6,1,72,6,1,L,0.19519999999999998,0.2556190476190476,0.1525,0.122
2,4,8,1,11,13.17599999999999,19,64,61,71,66,64,14.212999999999989,0.7929999999999997,2.622999999999998,0.061,20,3,9,1,66,3,13,1,4,1,48,4,1,L,0.21534848484848482,0.2643333333333333,0.20176923076923073,0.061
2,5,9,1,13,28.242999999999977,14,120,112,117,115,113,29.462999999999976,0.427,0.305,1.646999999999999,18,2,2,7,125,2,2,8,2,1,24,2,1,L,0.23570399999999997,0.2135,0.1525,0.20587499999999995
2,5,10,1,7,17.811999999999987,14,68,7,6,10,40,19.214999999999986,1.463999999999999,17.262999999999987,17.323999999999987,20,8,17,16,77,10,73,91,6,0.5,41,5.75,1,L,0.24954545454545451,0.1464,0.23647945205479448,0.19037362637362637
2,6,11,1,7,19.519999999999985,18,93,3,4,5,81,19.763999999999985,9.271999999999993,1.4029999999999991,4.208999999999997,20,15,7,11,95,36,8,18,6,0.5,39,5.25,1,L,0.2080421052631579,0.25755555555555554,0.175375,0.2338333333333333
2,6,12,1,11,18.482999999999986,18,82,37,40,113,45,44.773999999999965,0.305,0.7319999999999998,0.244,20,2,4,2,192,2,4,2,4,0.5,32,4.25,1,L,0.23319791666666664,0.1525,0.183,0.122
2,7,13,1,7,20.068999999999985,19,90,2,6,4,7,21.105999999999984,1.1589999999999994,3.659999999999997,5.306999999999996,20,2,11,16,93,2,13,28,6,1,72,6,1,L,0.22694623655913976,0.5794999999999997,0.2815384615384615,0.18953571428571425
2,7,14,1,14,35.623999999999974,18,157,16,86,100,91,66.18499999999995,0.244,0.244,0.366,20,3,2,3,263,3,2,3,3,0,14,3.5,1,L,0.25165399239543723,0.08133333333333333,0.122,0.122
2,8,15,1,15,19.702999999999985,16,98,16,20,34,21,19.763999999999985,0.061,9.210999999999993,2.2569999999999983,17,1,13,8,99,1,38,13,6,0.5,41,5.75,1,L,0.1996363636363636,0.061,0.24239473684210522,0.1736153846153846
2,8,16,1,12,25.19299999999998,20,121,78,39,43,57,34.342999999999975,0.122,0.061,4.025999999999997,20,1,1,11,153,1,1,17,5,0,17,4.25,1,L,0.22446405228758168,0.122,0.061,0.2368235294117647
2,9,17,1,11,13.48099999999999,20,67,67,106,70,68,19.397999999999985,0.427,0.183,1.0369999999999995,20,2,2,6,94,2,2,7,4,0.5,26,3.5,1,L,0.20636170212765956,0.2135,0.0915,0.14814285714285713
2,9,18,1,14,70.82100000000074,18,286,94,90,26,54,71.43100000000074,1.0979999999999994,1.2809999999999993,0.7319999999999998,20,4,4,2,288,4,4,2,3,0,15,3.75,1,L,0.24802430555555552,0.27449999999999997,0.3202499999999999,0.366
2,10,19,1,15,22.447999999999983,17,99,15,20,16,42,22.508999999999983,4.452999999999997,13.05399999999999,0.6099999999999999,18,15,16,4,100,21,50,4,6,0.5,41,5.75,1,L,0.22508999999999998,0.212047619047619,0.26108,0.1525
2,10,20,1,7,36.59999999999997,18,145,2,11,108,34,36.66099999999997,0.9149999999999996,5.306999999999996,2.439999999999998,19,4,13,9,146,4,22,12,6,0,19,4.75,1,L,0.25110273972602737,0.22874999999999998,0.2412272727272727,0.2033333333333333
2,11,21,1,15,16.774999999999988,20,67,21,57,23,14,18.665999999999986,0.366,0.305,0.5489999999999999,20,2,2,4,77,2,2,4,6,0.5,40,5.5,1,L,0.2424155844155844,0.183,0.1525,0.13724999999999998
2,11,22,1,7,17.140999999999988,18,84,2,72,67,10,17.262999999999987,13.602999999999989,5.7339999999999955,0.9759999999999995,19,16,13,7,85,58,24,7,6,0,20,5,1,L,0.20309411764705881,0.23453448275862065,0.23891666666666667,0.13942857142857143
3,1,1,1,3,22.935999999999982,19,104,26,89,3,6,26.59599999999998,28.669999999999977,17.750999999999987,14.578999999999988,20,19,18,17,119,120,83,57,5,0,20,5,1,L,0.2234957983193277,0.23891666666666664,0.21386746987951807,0.2557719298245614
3,1,2,1,12,28.181999999999977,20,128,37,18,84,19,30.987999999999975,8.112999999999994,2.0739999999999985,3.903999999999997,20,15,7,13,141,31,8,18,5,0,20,5,1,L,0.21977304964539005,0.2617096774193548,0.25925,0.21688888888888888
3,2,3,1,7,18.848999999999986,20,73,11,8,1,7,22.569999999999983,1.3419999999999992,2.0129999999999986,1.0369999999999995,20,5,6,4,93,5,6,4,6,1,72,6,1,L,0.24268817204301074,0.26839999999999997,0.3354999999999999,0.25925
3,2,4,1,8,37.88099999999997,16,164,106,101,108,40,38.06399999999997,0.183,1.4029999999999991,5.001999999999996,17,1,7,14,165,1,10,21,2,0.5,17,2.75,1,L,0.23069090909090906,0.183,0.1403,0.23819047619047615
3,3,5,1,15,28.608999999999977,17,117,13,14,16,19,29.584999999999976,0.305,1.646999999999999,1.0369999999999995,20,2,5,2,121,2,5,2,6,1,72,6,1,L,0.24450413223140494,0.1525,0.3293999999999999,0.5184999999999998
3,3,6,1,14,77.28700000000148,15,332,35,29,27,8,80.27600000000149,4.330999999999997,16.835999999999988,8.112999999999994,20,15,17,17,344,24,58,44,3,0.5,36,5.25,1,L,0.23336046511627906,0.1804583333333333,0.2902758620689655,0.18438636363636363
3,4,7,1,8,20.068999999999985,19,107,97,15,101,107,22.996999999999982,8.173999999999994,1.2199999999999993,5.123999999999996,20,15,9,10,122,25,10,21,2,0.5,18,3,1,L,0.1885,0.32696,0.122,0.24399999999999997
3,4,8,1,7,11.284999999999991,17,60,8,3,2,10,12.26099999999999,1.8299999999999987,1.2809999999999993,2.9279999999999977,20,8,6,10,64,8,6,13,6,1,72,6,1,L,0.191578125,0.22874999999999998,0.2135,0.2252307692307692
3,5,9,1,14,20.312999999999985,19,99,88,32,56,9,23.301999999999982,17.323999999999987,0.061,0.8539999999999996,20,18,1,4,112,73,1,4,3,0,18,4.5,1,L,0.20805357142857142,0.23731506849315065,0.061,0.2135
3,5,10,1,11,56.424999999999955,17,241,69,43,72,62,58.25499999999995,1.4029999999999991,0.183,5.184999999999996,20,5,2,14,250,5,2,28,4,0.5,29,4.25,1,L,0.23301999999999998,0.28059999999999996,0.0915,0.18517857142857141
3,6,11,1,8,37.39299999999997,14,175,70,107,108,77,49.04399999999996,0.7929999999999997,0.061,0.305,20,5,1,1,224,5,1,1,2,0,11,2.75,1,L,0.21894642857142854,0.1586,0.061,0.305
3,6,12,1,14,52.33799999999996,13,212,92,37,88,48,54.716999999999956,2.622999999999998,4.208999999999997,10.491999999999992,20,6,10,16,225,6,20,43,3,0,16,4,1,L,0.24318666666666663,0.4371666666666666,0.21044999999999997,0.24399999999999997
3,7,13,1,3,22.569999999999983,20,107,13,19,34,119,61.12199999999996,25.98599999999998,1.1589999999999994,0.122,20,19,4,1,264,107,5,1,5,0,19,4.75,1,L,0.23152272727272724,0.24285981308411211,0.23179999999999995,0.122
3,7,14,1,12,96.99000000000376,19,428,42,77,102,98,97.35600000000376,0.366,0.9759999999999995,2.2569999999999983,20,2,6,6,430,2,7,8,5,0,12,3,1,L,0.22640930232558137,0.183,0.13942857142857143,0.28212499999999996
3,8,15,1,1,14.151999999999989,20,86,76,81,82,73,14.395999999999988,2.3789999999999982,0.305,0.9149999999999996,20,9,1,6,88,10,1,7,3,1,36,3,1,L,0.1635909090909091,0.2379,0.305,0.1307142857142857
3,8,16,1,15,22.630999999999982,19,108,19,20,14,17,22.691999999999982,0.122,4.330999999999997,10.796999999999992,20,1,8,16,109,1,16,60,6,1,72,6,1,L,0.2081834862385321,0.122,0.27068749999999997,0.17995
3,9,17,1,15,9.576999999999993,17,57,21,17,20,65,9.698999999999993,1.4029999999999991,4.208999999999997,4.086999999999997,19,4,11,14,59,4,15,22,6,0.5,40,5.5,1,L,0.16438983050847458,0.35074999999999995,0.28059999999999996,0.18577272727272726
3,9,18,1,1,61.79299999999995,17,264,82,81,118,84,65.33099999999995,1.2199999999999993,0.183,0.305,20,6,1,1,283,8,1,1,3,0.5,20,2.75,1,L,0.23085159010600706,0.1525,0.183,0.305
3,10,19,1,15,16.530999999999988,19,90,14,16,112,110,16.835999999999988,0.9759999999999995,3.842999999999997,0.183,20,5,9,1,93,5,15,1,6,0,16,4,1,L,0.18103225806451612,0.19519999999999998,0.2562,0.183
3,10,20,1,14,32.39099999999998,20,156,95,88,89,7,33.183999999999976,2.2569999999999983,0.061,1.0369999999999995,20,9,1,6,160,10,1,8,3,0.5,24,3.75,1,L,0.20739999999999997,0.22569999999999998,0.061,0.129625
3,11,21,1,12,25.68099999999998,16,116,47,37,45,44,26.90099999999998,2.3179999999999983,0.5489999999999999,0.8539999999999996,20,9,2,3,122,11,2,3,5,1,60,5,1,L,0.2205,0.21072727272727274,0.27449999999999997,0.28466666666666657
3,11,22,1,8,25.43699999999998,18,102,98,5,107,104,26.53499999999998,1.2199999999999993,0.305,0.6709999999999998,20,5,2,4,111,5,2,4,2,0.5,18,3,1,L,0.23905405405405403,0.24399999999999997,0.1525,0.16775
4,1,1,1,15,37.69799999999997,17,184,22,18,52,91,39.34499999999997,1.585999999999999,2.9889999999999977,8.417999999999994,20,4,12,15,193,6,17,32,6,0,19,4.75,1,L,0.20386010362694298,0.2643333333333333,0.17582352941176468,0.2630625
4,1,2,1,7,65.88000000000017,14,276,5,98,11,3,67.58800000000016,1.2809999999999993,0.9759999999999995,3.2329999999999974,20,4,6,7,284,4,6,8,6,0.5,38,5,1,L,0.23798591549295772,0.3202499999999999,0.16266666666666665,0.40412499999999996
4,2,3,1,11,47.57999999999996,16,195,66,18,96,61,48.31199999999996,6.8319999999999945,1.8299999999999987,0.488,20,13,8,3,200,23,9,3,4,0,17,4.25,1,L,0.24155999999999997,0.2970434782608695,0.2033333333333333,0.16266666666666665
4,2,4,1,13,17.628999999999987,20,79,113,114,119,12,19.946999999999985,2.9889999999999977,6.160999999999995,11.95599999999999,20,9,14,17,85,13,25,43,2,0.5,18,3,1,L,0.2346705882352941,0.22992307692307692,0.24644,0.27804651162790694
4,3,5,1,11,31.353999999999974,18,141,70,62,64,65,33.915999999999976,1.0979999999999994,1.463999999999999,5.428999999999996,20,4,6,13,148,4,6,26,4,1,48,4,1,L,0.22916216216216212,0.27449999999999997,0.24399999999999997,0.20880769230769228
4,3,6,1,7,23.118999999999982,17,101,6,5,9,1,23.362999999999982,0.6709999999999998,3.903999999999997,5.550999999999996,19,5,12,15,103,5,17,25,6,1,72,6,1,L,0.2268252427184466,0.13419999999999999,0.22964705882352937,0.22204
4,4,7,1,7,14.944999999999988,19,83,3,11,4,7,16.591999999999988,0.061,0.061,10.125999999999992,20,1,1,17,91,1,1,51,6,1,72,6,1,L,0.18232967032967032,0.061,0.061,0.19854901960784313
4,4,8,1,1,24.52199999999998,20,121,77,76,108,78,26.41299999999998,7.380999999999994,2.3179999999999983,2.3179999999999983,20,15,9,7,129,38,11,13,3,0.5,20,2.75,1,L,0.20475193798449612,0.19423684210526315,0.21072727272727274,0.1783076923076923
4,5,9,1,13,16.10399999999999,15,67,110,111,120,116,16.713999999999988,0.366,0.9149999999999996,4.940999999999996,17,2,4,14,70,2,4,19,2,1,24,2,1,L,0.23877142857142855,0.183,0.22875,0.26005263157894737
4,5,10,1,11,25.86399999999998,18,108,64,63,7,65,26.96199999999998,0.183,12.50499999999999,1.9519999999999986,20,2,17,9,114,2,44,12,4,0.5,30,4.5,1,L,0.23650877192982453,0.0915,0.28420454545454543,0.16266666666666665
4,6,11,1,7,17.506999999999987,16,82,7,12,26,30,18.604999999999986,0.488,16.530999999999988,3.598999999999997,20,2,16,13,86,2,62,22,6,0,22,5.5,1,L,0.21633720930232556,0.244,0.2666290322580645,0.1635909090909091
4,6,12,1,2,15.188999999999988,19,74,58,15,13,42,16.16499999999999,15.432999999999987,36.23399999999997,1.2199999999999993,20,18,18,7,80,63,167,8,4,0,21,5.25,1,L,0.20206249999999998,0.24496825396825395,0.2169700598802395,0.1525
4,7,13,1,7,15.005999999999988,15,80,11,8,33,6,16.957999999999988,0.305,9.393999999999993,0.122,20,2,15,1,90,2,49,1,6,0.5,41,5.75,1,L,0.1884222222222222,0.1525,0.1917142857142857,0.122
4,7,14,1,11,22.935999999999982,19,105,65,61,68,63,24.76599999999998,0.6709999999999998,2.439999999999998,5.001999999999996,20,5,6,11,113,6,7,18,4,1,48,4,1,L,0.21916814159292033,0.11183333333333333,0.3485714285714285,0.27788888888888885
4,8,15,1,7,16.896999999999988,18,70,97,2,3,77,19.946999999999985,0.5489999999999999,1.8299999999999987,7.563999999999994,20,2,9,14,83,2,12,29,6,0,17,4.25,1,L,0.24032530120481926,0.27449999999999997,0.1525,0.2608275862068965
4,8,16,1,14,17.811999999999987,20,101,90,48,93,47,25.55899999999998,7.8689999999999936,0.7929999999999997,4.025999999999997,20,16,4,11,143,33,4,17,3,0,16,4,1,L,0.17873426573426573,0.23845454545454542,0.19824999999999998,0.23682352941176468
4,9,17,1,11,11.284999999999991,19,65,72,67,78,79,13.724999999999989,3.659999999999997,12.80999999999999,0.427,20,13,17,2,75,17,59,2,4,0,14,3.5,1,L,0.183,0.21529411764705883,0.21711864406779657,0.2135
4,9,18,1,12,19.214999999999986,18,96,2,40,43,8,33.732999999999976,0.061,1.2199999999999993,7.075999999999994,20,1,7,15,157,1,8,38,5,0,22,5.5,1,L,0.21485987261146497,0.061,0.1525,0.18621052631578947
4,10,19,1,13,12.99299999999999,17,70,109,113,112,47,15.066999999999988,0.061,2.0739999999999985,2.8669999999999978,20,1,5,9,83,1,5,13,2,0.5,17,2.75,1,L,0.18153012048192768,0.061,0.41479999999999995,0.22053846153846154
4,10,20,1,3,17.201999999999988,19,95,31,28,27,36,18.238999999999987,0.305,3.1719999999999975,2.439999999999998,20,4,12,7,99,4,17,9,5,1,60,5,1,L,0.18423232323232322,0.07625,0.18658823529411764,0.271111111111111
4,11,21,1,1,10.491999999999992,16,54,79,81,80,120,12.99299999999999,4.147999999999997,12.13899999999999,2.0739999999999985,20,11,16,9,63,15,36,11,3,0.5,20,2.75,1,L,0.20623809523809522,0.2765333333333333,0.33719444444444435,0.18854545454545452
4,11,22,1,15,24.09499999999998,18,110,16,13,24,19,24.15599999999998,0.6709999999999998,3.476999999999997,2.439999999999998,19,5,10,8,111,5,15,10,6,1,72,6,1,L,0.2176216216216216,0.13419999999999999,0.23179999999999998,0.244
4,12,23,1,3,60.02399999999995,18,246,70,30,29,25,61.42699999999995,1.0979999999999994,3.598999999999997,4.391999999999997,20,4,6,11,253,6,10,23,5,0.5,34,4.75,1,L,0.24279446640316205,0.183,0.3598999999999999,0.1909565217391304
4,12,24,1,15,16.34799999999999,18,83,18,15,19,21,19.458999999999985,2.8669999999999978,3.781999999999997,0.7929999999999997,20,10,12,3,101,15,17,4,6,1,72,6,1,L,0.19266336633663364,0.19113333333333332,0.2224705882352941,0.19824999999999998
5,1,1,1,3,22.508999999999983,14,95,27,31,25,8,23.057999999999982,3.1719999999999975,0.8539999999999996,2.0739999999999985,17,11,4,6,98,15,4,9,5,0.5,36,5.25,1,L,0.23528571428571426,0.21146666666666664,0.2135,0.23044444444444442
5,1,2,1,15,20.800999999999984,15,97,21,24,39,40,20.861999999999984,6.709999999999995,8.722999999999994,1.2199999999999993,16,14,14,4,98,26,33,4,6,0,22,5.5,1,L,0.21287755102040815,0.25807692307692304,0.2643333333333333,0.30499999999999994
5,2,3,1,2,22.020999999999983,16,104,44,52,40,45,37.14899999999997,0.6099999999999999,0.427,1.3419999999999992,20,3,1,2,165,3,1,2,4,0.5,34,4.75,1,L,0.22514545454545454,0.20333333333333334,0.427,0.6709999999999998
5,2,4,1,11,44.285999999999966,16,196,65,62,26,3,44.346999999999966,0.122,6.404999999999995,1.2199999999999993,17,2,16,3,197,2,32,3,4,0,19,4.75,1,L,0.22511167512690353,0.061,0.20015624999999998,0.4066666666666666
5,3,5,1,15,16.896999999999988,19,83,16,19,17,21,17.811999999999987,0.244,2.3789999999999982,1.524999999999999,20,2,10,3,87,2,14,3,6,1,72,6,1,L,0.20473563218390803,0.122,0.16992857142857143,0.5083333333333331
5,3,6,1,3,19.885999999999985,18,103,30,6,55,52,23.97299999999998,15.066999999999988,3.0499999999999976,0.6099999999999999,20,18,10,4,114,77,12,4,5,0,19,4.75,1,L,0.2102894736842105,0.19567532467532467,0.25416666666666665,0.1525
5,4,7,1,15,16.713999999999988,14,82,19,15,20,46,18.055999999999987,10.918999999999992,4.391999999999997,0.122,20,16,13,1,90,37,19,1,6,0.5,41,5.75,1,L,0.2006222222222222,0.29510810810810806,0.2311578947368421,0.122
5,4,8,1,3,9.210999999999993,18,41,25,32,27,35,20.068999999999985,4.147999999999997,0.305,1.0979999999999994,20,9,2,5,92,11,2,6,5,1,60,5,1,L,0.21814130434782608,0.377090909090909,0.1525,0.183
5,5,9,1,14,17.994999999999987,16,98,95,94,41,49,18.360999999999986,3.2939999999999974,15.920999999999987,0.488,20,10,17,2,102,12,68,2,3,0,15,3.75,1,L,0.18000980392156862,0.27449999999999997,0.23413235294117643,0.244
5,5,10,1,11,21.166999999999984,18,101,62,63,15,72,31.597999999999978,0.427,4.086999999999997,1.646999999999999,20,3,8,4,149,3,17,4,4,0.5,30,4.5,1,L,0.21206711409395973,0.14233333333333334,0.24041176470588232,0.4117499999999999
5,6,11,1,8,21.715999999999983,19,110,100,107,106,103,23.78999999999998,0.366,0.6099999999999999,15.432999999999987,20,2,7,16,114,2,7,62,2,1,24,2,1,L,0.20868421052631578,0.183,0.08714285714285715,0.24891935483870964
5,6,12,1,15,15.310999999999988,20,89,14,24,22,25,15.371999999999987,0.488,3.4159999999999973,710.8330000000481,20,4,10,16,90,4,15,2858,6,0.5,41,5.75,1,L,0.1708,0.122,0.22773333333333332,0.24871693491952412
5,7,13,1,7,30.316999999999975,17,134,12,4,3,41,30.438999999999975,6.282999999999995,9.820999999999993,3.3549999999999973,18,9,14,9,135,20,40,14,6,0.5,41,5.75,1,L,0.22547407407407405,0.31414999999999993,0.245525,0.2396428571428571
5,7,14,1,3,17.689999999999987,17,87,31,29,18,74,17.811999999999987,0.061,14.212999999999989,1.4029999999999991,18,1,17,5,88,1,62,6,5,0,19,4.75,1,L,0.2024090909090909,0.061,0.22924193548387095,0.23383333333333334
5,8,15,1,8,16.28699999999999,19,86,105,99,100,47,16.34799999999999,1.0979999999999994,1.2199999999999993,6.404999999999995,20,3,7,14,87,3,8,31,2,0.5,17,2.75,1,L,0.18790804597701147,0.366,0.1525,0.20661290322580644
5,8,16,1,2,11.95599999999999,20,59,2,3,9,12,42.88299999999997,3.781999999999997,1.463999999999999,6.404999999999995,20,15,4,14,181,20,4,22,4,1,72,6,1,L,0.23692265193370163,0.1891,0.3659999999999999,0.2911363636363636
5,9,17,1,7,19.946999999999985,18,91,7,6,92,8,20.007999999999985,1.2199999999999993,2.500999999999998,0.122,19,4,10,1,92,6,14,1,6,0.5,39,5.25,1,L,0.2174782608695652,0.20333333333333334,0.17864285714285713,0.122
5,9,18,1,2,22.569999999999983,18,92,58,54,53,34,22.996999999999982,2.439999999999998,1.0369999999999995,1.0979999999999994,19,5,4,5,93,8,5,6,4,0.5,29,4.25,1,L,0.2472795698924731,0.30499999999999994,0.2074,0.183
6,1,1,1,1,48.49499999999996,14,219,18,15,74,59,63.68399999999995,3.2329999999999974,0.061,0.061,20,11,1,1,284,17,1,1,3,0,19,4.75,1,L,0.2242394366197183,0.19017647058823528,0.061,0.061
6,1,2,1,14,45.200999999999965,15,215,86,95,94,12,46.78699999999996,1.0979999999999994,3.720999999999997,1.7079999999999989,20,3,10,6,223,3,13,8,3,0.5,24,3.75,1,L,0.20980717488789236,0.36599999999999994,0.2862307692307692,0.21349999999999997
6,2,3,1,12,22.630999999999982,20,99,42,39,45,15,24.21699999999998,3.903999999999997,0.061,0.366,20,12,1,3,108,13,1,3,5,0.5,36,5.25,1,L,0.22423148148148148,0.3003076923076923,0.061,0.122
6,2,4,1,8,11.589999999999991,18,52,102,106,105,75,12.50499999999999,0.6099999999999999,2.622999999999998,27.388999999999978,20,3,8,17,56,3,12,105,2,0.5,15,2.25,1,L,0.2233035714285714,0.20333333333333334,0.21858333333333332,0.260847619047619
6,3,5,1,13,9.515999999999993,18,53,117,120,16,113,15.554999999999989,3.9649999999999967,8.051999999999994,0.9149999999999996,20,13,18,4,72,23,41,4,2,0.5,18,3,1,L,0.21604166666666666,0.1723913043478261,0.196390243902439,0.22874999999999995
6,3,6,1,1,26.59599999999998,19,118,82,67,103,74,30.316999999999975,30.255999999999975,1.524999999999999,0.5489999999999999,20,19,7,4,133,129,7,5,3,0,12,3,1,L,0.22794736842105262,0.2345426356589147,0.21785714285714283,0.1098
6,4,7,1,14,11.406999999999991,20,58,90,92,96,1,15.920999999999989,0.244,0.8539999999999996,22.020999999999983,20,2,6,17,84,2,7,98,3,0.5,24,3.75,1,L,0.18953571428571428,0.122,0.122,0.22470408163265304
6,4,8,1,1,19.702999999999985,19,115,16,61,73,70,34.769999999999975,0.9759999999999995,0.366,1.524999999999999,20,5,2,5,173,5,2,6,3,0,17,4.25,1,L,0.20098265895953754,0.19519999999999998,0.183,0.25416666666666665
6,5,9,1,14,9.820999999999993,16,45,91,28,18,107,17.750999999999987,11.589999999999991,1.0369999999999995,5.184999999999996,20,18,4,12,73,57,5,21,3,0,16,4,1,L,0.2431643835616438,0.20333333333333334,0.2074,0.24690476190476188
6,5,10,1,7,19.092999999999986,17,85,1,4,8,71,21.227999999999984,4.513999999999997,0.183,8.722999999999994,20,12,1,14,91,20,2,27,6,0.5,40,5.5,1,L,0.23327472527472526,0.22569999999999998,0.0915,0.323074074074074
6,6,11,1,14,13.785999999999989,18,71,90,88,50,4,14.761999999999988,6.770999999999995,14.273999999999988,3.9649999999999967,20,16,17,14,76,33,67,19,3,0,16,4,1,L,0.19423684210526315,0.20518181818181816,0.21304477611940298,0.20868421052631578
6,6,12,1,3,22.691999999999982,20,119,34,25,104,26,25.00999999999998,2.0739999999999985,0.8539999999999996,2.561999999999998,20,10,1,9,128,12,2,11,5,0.5,32,4.25,1,L,0.19539062499999998,0.17283333333333334,0.4269999999999999,0.2329090909090909
6,7,13,1,14,34.525999999999975,20,155,86,88,93,23,34.708999999999975,0.8539999999999996,3.659999999999997,6.160999999999995,20,5,11,15,157,6,17,30,3,0.5,24,3.75,1,L,0.2210764331210191,0.14233333333333334,0.21529411764705883,0.20536666666666667
6,7,14,1,7,29.340999999999976,15,128,9,77,1,10,29.462999999999976,4.635999999999997,1.7689999999999988,0.305,17,12,5,2,130,18,7,2,6,0.5,39,5.25,1,L,0.2266384615384615,0.25755555555555554,0.25271428571428567,0.1525
6,8,15,1,12,21.471999999999984,19,91,40,46,45,41,21.532999999999983,1.463999999999999,0.9149999999999996,5.306999999999996,20,6,3,14,92,8,4,24,5,1,60,5,1,L,0.23405434782608694,0.183,0.22874999999999995,0.22112499999999996
6,8,16,1,7,35.562999999999974,18,157,3,4,1,30,37.81999999999997,4.391999999999997,5.123999999999996,1.0369999999999995,20,12,14,7,172,19,28,7,6,0.5,41,5.75,1,L,0.21988372093023253,0.2311578947368421,0.183,0.14814285714285713
6,9,17,1,14,10.674999999999992,19,64,1,7,29,8,51.91099999999996,39.34499999999997,0.061,0.122,20,19,1,1,224,159,1,1,3,0.5,41,5.75,1,L,0.2317455357142857,0.24745283018867922,0.061,0.122
6,9,18,1,12,20.068999999999985,20,90,14,38,40,46,34.647999999999975,0.061,0.061,1.3419999999999992,20,1,1,6,161,1,1,7,5,0.5,36,5.25,1,L,0.21520496894409935,0.061,0.061,0.1917142857142857
6,10,19,1,14,20.251999999999985,15,82,30,94,118,109,50.56899999999996,0.183,0.061,1.524999999999999,20,2,1,7,211,2,1,9,3,0,12,3,1,L,0.23966350710900472,0.0915,0.061,0.16944444444444445
6,10,20,1,7,20.434999999999985,20,105,2,1,3,5,21.227999999999984,8.295999999999994,1.0369999999999995,0.6709999999999998,20,14,6,3,111,39,7,4,6,1,72,6,1,L,0.19124324324324324,0.2127179487179487,0.14814285714285713,0.16775
6,11,21,1,7,12.56599999999999,18,57,1,11,2,57,12.62699999999999,2.1959999999999984,1.8909999999999987,5.428999999999996,19,6,7,12,58,7,11,19,6,0.5,40,5.5,1,L,0.21770689655172412,0.31371428571428567,0.1719090909090909,0.2857368421052631
6,11,22,1,3,29.218999999999976,19,124,29,27,20,21,30.682999999999975,4.452999999999997,2.9279999999999977,11.71199999999999,20,12,8,17,128,18,9,56,5,0,22,5.5,1,L,0.23971093749999997,0.24738888888888888,0.32533333333333325,0.20914285714285713
7,1,1,1,13,19.336999999999986,20,87,111,120,116,114,19.397999999999985,0.8539999999999996,1.7079999999999989,5.855999999999995,20,4,9,13,88,5,9,18,2,1,24,2,1,L,0.22043181818181817,0.1708,0.18977777777777777,0.32533333333333325
7,1,2,1,8,28.425999999999977,17,132,97,54,8,98,28.486999999999977,13.23699999999999,2.8669999999999978,0.9759999999999995,18,17,9,3,133,51,14,3,2,0,14,3.5,1,L,0.214187969924812,0.2595490196078431,0.20478571428571427,0.32533333333333325
7,2,3,1,1,39.03999999999997,16,156,77,78,7,52,40.01599999999997,3.476999999999997,4.086999999999997,0.122,20,7,14,1,160,9,21,1,3,0,16,4,1,L,0.2501,0.3863333333333332,0.1946190476190476,0.122
7,2,4,1,11,22.386999999999983,20,106,71,70,65,61,22.691999999999982,0.5489999999999999,3.720999999999997,0.7929999999999997,20,3,8,3,108,3,16,4,4,1,48,4,1,L,0.21011111111111108,0.183,0.23256249999999998,0.19824999999999998
7,3,5,1,14,11.71199999999999,19,64,86,91,94,93,11.89499999999999,0.7929999999999997,2.0739999999999985,1.524999999999999,20,4,9,8,66,4,10,10,3,1,36,3,1,L,0.18022727272727274,0.19824999999999998,0.20739999999999997,0.1525
7,3,6,1,13,19.946999999999985,17,93,118,110,119,40,20.617999999999984,1.9519999999999986,2.3789999999999982,13.54199999999999,20,6,8,15,96,8,10,58,2,0.5,17,2.75,1,L,0.21477083333333333,0.24399999999999994,0.23789999999999994,0.23348275862068962
7,4,7,1,13,18.116999999999987,19,86,120,83,112,77,22.630999999999982,17.445999999999987,0.488,0.6709999999999998,20,19,2,3,107,74,2,3,2,0,10,2.5,1,L,0.21150467289719624,0.23575675675675672,0.244,0.22366666666666665
7,4,8,1,14,29.157999999999976,15,127,85,86,88,104,29.279999999999976,2.561999999999998,4.147999999999997,5.7949999999999955,17,4,14,16,129,4,23,34,3,0.5,20,2.75,1,L,0.2269767441860465,0.6404999999999998,0.18034782608695651,0.17044117647058823
7,5,9,1,13,25.55899999999998,15,130,112,2,5,63,27.632999999999978,19.580999999999985,3.9649999999999967,1.0369999999999995,20,18,13,4,140,88,15,4,2,0,18,4.5,1,L,0.1973785714285714,0.22251136363636362,0.2643333333333333,0.2592499999999999
7,5,10,1,3,27.632999999999978,15,131,33,28,17,89,29.401999999999976,0.366,52.03299999999996,4.208999999999997,20,2,18,12,138,3,207,19,5,0,19,4.75,1,L,0.21305797101449273,0.122,0.2513671497584541,0.22152631578947365
7,6,11,1,7,27.266999999999978,17,112,3,8,71,7,27.998999999999977,0.366,14.273999999999988,14.212999999999989,20,2,17,16,115,2,60,51,6,0.5,40,5.5,1,L,0.24346956521739127,0.183,0.23789999999999997,0.2786862745098039
7,6,12,1,15,37.08799999999997,13,156,22,20,15,14,38.85699999999997,0.6099999999999999,3.781999999999997,10.003999999999992,20,4,13,17,164,5,22,40,6,1,72,6,1,L,0.23693292682926825,0.122,0.1719090909090909,0.2501
7,7,13,1,1,63.80599999999995,15,281,77,55,15,116,64.35499999999995,1.1589999999999994,12.38299999999999,10.064999999999992,19,3,18,16,285,3,52,61,3,0,15,3.75,1,L,0.22580701754385962,0.3863333333333333,0.23813461538461536,0.16499999999999998
7,7,14,1,12,34.281999999999975,20,150,43,42,9,71,35.074999999999974,0.8539999999999996,1.8909999999999987,9.515999999999993,20,5,5,16,153,6,5,38,5,0,20,5,1,L,0.22924836601307186,0.14233333333333334,0.3782,0.25042105263157893
7,8,15,1,3,26.53499999999998,17,133,31,28,34,50,27.937999999999978,2.2569999999999983,0.122,5.123999999999996,20,7,1,14,138,8,1,20,5,0.5,34,4.75,1,L,0.20244927536231883,0.28212499999999996,0.122,0.2562
7,8,16,1,11,21.776999999999983,20,93,71,80,83,110,30.98799999999998,6.709999999999995,3.4159999999999973,3.537999999999997,20,15,10,10,137,27,12,15,4,0,12,3,1,L,0.2261897810218978,0.2485185185185185,0.2846666666666666,0.23586666666666667
7,9,17,1,12,34.769999999999975,17,166,42,47,74,84,37.51499999999997,0.244,0.427,4.818999999999996,20,2,3,12,178,2,3,19,5,0,16,4,1,L,0.21075842696629213,0.122,0.14233333333333334,0.2536315789473684
7,9,18,1,14,12.68799999999999,18,57,92,89,86,28,13.11499999999999,0.5489999999999999,0.061,8.661999999999994,20,2,1,14,60,2,1,34,3,0.5,23,3.5,1,L,0.21858333333333332,0.27449999999999997,0.061,0.2547647058823529
7,10,19,1,7,15.737999999999987,16,71,1,3,4,26,15.859999999999987,0.305,6.465999999999995,0.8539999999999996,17,2,14,2,72,2,25,2,6,0.5,41,5.75,1,L,0.22027777777777777,0.1525,0.25864,0.42699999999999994
7,10,20,1,12,42.08999999999997,14,173,46,86,14,44,43.06599999999997,5.306999999999996,1.9519999999999986,1.9519999999999986,20,15,7,5,180,31,8,5,5,0,19,4.75,1,L,0.23925555555555553,0.17119354838709677,0.244,0.39039999999999986
7,11,21,1,15,14.517999999999988,20,63,15,17,20,112,15.920999999999987,2.3179999999999983,2.9889999999999977,0.6709999999999998,20,11,11,5,68,11,13,5,6,0.5,38,5,1,L,0.23413235294117643,0.2107272727272727,0.2299230769230769,0.13419999999999999
7,11,22,1,12,31.048999999999975,15,139,46,39,48,82,33.366999999999976,0.5489999999999999,1.8909999999999987,4.7579999999999965,20,3,7,12,146,3,10,23,5,0.5,33,4.5,1,L,0.22854109589041094,0.183,0.1891,0.2068695652173913
8,1,1,1,13,26.10799999999998,20,130,111,110,118,116,27.815999999999978,1.8909999999999987,5.7339999999999955,0.183,20,7,11,1,139,7,21,1,2,1,24,2,1,L,0.20011510791366904,0.2701428571428571,0.273047619047619,0.183
8,1,2,1,7,16.10399999999999,17,75,8,10,1,37,16.774999999999988,2.0129999999999986,5.428999999999996,1.0979999999999994,20,7,14,5,78,8,21,7,6,0.5,41,5.75,1,L,0.21506410256410255,0.251625,0.2585238095238095,0.15685714285714283
8,2,3,1,1,46.664999999999964,12,180,82,77,19,15,48.43399999999996,1.1589999999999994,8.722999999999994,19.702999999999985,16,4,18,17,185,4,39,88,3,0,18,4.5,1,L,0.26180540540540537,0.28974999999999995,0.22366666666666665,0.22389772727272725
8,2,4,1,7,34.525999999999975,16,141,4,9,6,92,34.647999999999975,1.463999999999999,0.305,29.462999999999976,18,7,2,17,143,8,2,133,6,0.5,39,5.25,1,L,0.24229370629370625,0.183,0.1525,0.22152631578947365
8,3,5,1,12,37.81999999999997,14,165,44,42,39,91,38.24699999999997,0.366,1.524999999999999,26.83999999999998,16,2,7,16,167,2,8,98,5,0.5,33,4.5,1,L,0.22902395209580836,0.183,0.190625,0.2738775510204081
8,3,6,1,15,9.881999999999993,10,44,16,15,14,22,10.064999999999992,2.3179999999999983,3.659999999999997,3.2329999999999974,12,8,8,11,46,9,13,13,6,1,72,6,1,L,0.21880434782608693,0.25755555555555554,0.2815384615384615,0.24869230769230768
8,4,7,1,3,11.89499999999999,20,54,25,89,92,101,12.93199999999999,33.061999999999976,3.720999999999997,2.622999999999998,20,19,8,7,59,133,13,8,5,0,13,3.25,1,L,0.21918644067796608,0.2485864661654135,0.2862307692307692,0.32787499999999997
8,4,8,1,1,11.101999999999991,20,72,17,21,24,74,45.078999999999965,0.5489999999999999,0.244,0.122,20,4,2,1,218,4,2,1,3,0.5,39,5.25,1,L,0.20678440366972475,0.13724999999999998,0.122,0.122
8,5,9,1,2,27.327999999999978,13,129,55,51,50,30,27.693999999999978,2.0129999999999986,0.305,18.604999999999986,16,8,2,17,132,10,2,79,4,0.5,29,4.25,1,L,0.2098030303030303,0.2013,0.1525,0.23550632911392402
8,5,10,1,15,19.519999999999985,20,105,17,21,20,19,27.75499999999998,0.183,2.439999999999998,0.061,20,2,9,1,143,2,14,1,6,1,72,6,1,L,0.1940909090909091,0.0915,0.1742857142857143,0.061
8,6,11,1,1,13.48099999999999,17,53,66,98,14,99,31.597999999999978,27.998999999999977,21.227999999999984,7.258999999999994,20,19,18,16,139,124,99,28,3,0,14,3.5,1,L,0.2273237410071942,0.2257983870967742,0.2144242424242424,0.25925
8,6,12,1,2,11.71199999999999,19,59,56,55,51,37,11.89499999999999,4.208999999999997,3.903999999999997,8.234999999999994,20,11,13,13,62,15,23,30,4,0.5,29,4.25,1,L,0.1918548387096774,0.28059999999999996,0.16973913043478261,0.27449999999999997
8,7,13,1,3,17.689999999999987,17,102,75,81,116,119,62.951999999999956,14.578999999999988,0.183,25.19299999999998,20,18,2,17,299,70,2,114,5,0,10,2.5,1,L,0.21054180602006686,0.20827142857142855,0.0915,0.22099122807017543
8,7,14,1,12,17.140999999999988,20,82,46,43,88,19,19.580999999999985,2.805999999999998,7.136999999999994,17.689999999999987,20,10,14,17,96,13,25,82,5,0,19,4.75,1,L,0.20396874999999998,0.2158461538461538,0.28547999999999996,0.21573170731707314
8,8,15,1,3,12.74899999999999,17,54,32,25,27,36,13.846999999999989,0.122,0.7319999999999998,6.038999999999995,20,1,3,12,58,1,3,19,5,1,60,5,1,L,0.2387413793103448,0.122,0.244,0.3178421052631578
8,8,16,1,15,18.604999999999986,19,96,24,20,16,17,20.007999999999985,4.6969999999999965,1.2199999999999993,1.2199999999999993,20,9,6,4,104,14,6,4,6,1,72,6,1,L,0.19238461538461538,0.3354999999999999,0.20333333333333334,0.305
8,9,17,1,7,36.05099999999997,20,164,72,3,2,1,37.94199999999997,1.2199999999999993,3.537999999999997,3.3549999999999973,20,6,11,13,172,8,12,19,6,0.5,40,5.5,1,L,0.22059302325581392,0.1525,0.2948333333333333,0.17657894736842106
8,9,18,1,2,14.639999999999988,19,85,37,51,52,41,36.17299999999997,2.0739999999999985,0.9759999999999995,9.454999999999993,20,8,6,17,186,8,6,36,4,0,18,4.5,1,L,0.1944784946236559,0.25925,0.16266666666666665,0.26263888888888887
8,10,19,1,7,19.092999999999986,15,75,6,51,52,8,19.153999999999986,7.807999999999994,4.025999999999997,0.366,16,15,12,2,76,35,20,2,6,0,20,5,1,L,0.25202631578947365,0.22308571428571428,0.20129999999999998,0.183
8,10,20,1,14,52.70399999999996,17,226,90,38,44,39,52.82599999999996,1.524999999999999,5.855999999999995,2.683999999999998,18,5,13,11,227,6,20,13,3,0.5,33,4.5,1,L,0.23271365638766517,0.25416666666666665,0.29279999999999995,0.20646153846153845
8,11,21,1,7,18.787999999999986,15,75,4,11,115,42,19.031999999999986,0.061,2.683999999999998,4.208999999999997,18,1,7,11,78,1,9,16,6,0,19,4.75,1,L,0.24399999999999997,0.061,0.2982222222222222,0.2630625
8,11,22,1,11,84.54600000000232,14,322,63,87,65,22,84.85100000000233,1.1589999999999994,10.247999999999992,9.332999999999993,17,7,18,15,325,8,44,39,4,0,17,4.25,1,L,0.26108,0.144875,0.2329090909090909,0.23930769230769228
9,1,1,1,13,7.746999999999994,11,37,111,116,118,120,12.74899999999999,1.3419999999999992,0.5489999999999999,0.122,20,3,2,2,58,3,2,2,2,1,24,2,1,L,0.2198103448275862,0.44733333333333314,0.27449999999999997,0.061
9,1,2,1,11,42.08999999999997,19,179,67,70,10,72,42.45599999999997,0.305,3.9649999999999967,2.744999999999998,20,1,9,10,181,1,12,17,4,0.5,30,4.5,1,L,0.2345635359116022,0.305,0.33041666666666664,0.16147058823529412
9,2,3,1,15,27.02299999999998,18,133,15,20,24,27,27.08399999999998,2.3789999999999982,3.1109999999999975,8.173999999999994,19,9,10,15,134,11,15,36,6,0.5,41,5.75,1,L,0.2021194029850746,0.21627272727272726,0.2074,0.22705555555555554
9,2,4,1,14,20.312999999999985,19,83,91,94,87,96,20.373999999999985,3.537999999999997,1.9519999999999986,1.3419999999999992,20,14,9,8,84,20,9,9,3,1,36,3,1,L,0.242547619047619,0.1769,0.21688888888888888,0.1491111111111111
9,3,5,1,3,11.83399999999999,13,58,29,33,26,28,11.89499999999999,2.683999999999998,0.061,1.2199999999999993,14,8,1,6,59,10,1,7,5,1,60,5,1,L,0.2016101694915254,0.2683999999999999,0.061,0.1742857142857143
9,3,6,1,7,10.918999999999992,13,58,12,11,69,65,10.979999999999992,3.903999999999997,9.332999999999993,6.221999999999995,14,9,15,14,59,13,30,26,6,0,20,5,1,L,0.18610169491525422,0.3003076923076922,0.31109999999999993,0.23930769230769228
9,4,7,1,13,22.020999999999983,19,101,115,109,111,112,22.264999999999983,1.1589999999999994,3.659999999999997,1.0369999999999995,20,5,11,6,103,5,12,6,2,1,24,2,1,L,0.21616504854368931,0.2318,0.30499999999999994,0.17283333333333334
9,4,8,1,3,13.35899999999999,18,70,4,6,5,29,50.38599999999996,15.981999999999987,9.088999999999993,0.122,20,18,16,1,197,64,32,1,5,0.5,41,5.75,1,L,0.2557664974619289,0.24971875,0.28403124999999996,0.122
9,5,9,1,7,13.907999999999989,19,75,9,2,11,10,13.968999999999989,5.7949999999999955,0.488,1.0369999999999995,20,14,2,5,76,23,2,5,6,1,72,6,1,L,0.18380263157894736,0.2519565217391304,0.244,0.2074
9,5,10,1,15,19.885999999999985,14,92,24,14,21,28,23.42399999999998,0.305,2.2569999999999983,12.19999999999999,20,2,9,16,101,2,11,57,6,0.5,41,5.75,1,L,0.2319207920792079,0.1525,0.2051818181818182,0.21403508771929824
9,6,11,1,13,44.346999999999966,15,186,116,114,55,53,45.444999999999965,2.0739999999999985,4.574999999999997,0.9149999999999996,20,11,12,4,193,12,22,5,2,0,12,3,1,L,0.2354663212435233,0.17283333333333334,0.20795454545454545,0.183
9,6,12,1,11,27.388999999999978,18,146,93,22,105,96,65.02599999999995,6.099999999999995,9.576999999999993,2.1349999999999985,20,14,16,5,302,18,43,6,4,0,14,3.5,1,L,0.21531788079470196,0.3388888888888888,0.22272093023255812,0.35583333333333333
9,7,13,1,7,38.55199999999997,16,176,6,10,101,5,39.22299999999997,2.439999999999998,2.9279999999999977,5.672999999999996,19,11,6,14,179,13,9,18,6,0.5,38,5,1,L,0.21912290502793294,0.18769230769230769,0.3253333333333333,0.3151666666666666
9,7,14,1,13,20.922999999999984,20,93,112,116,114,13,21.105999999999984,3.903999999999997,1.585999999999999,1.9519999999999986,20,9,9,6,94,13,9,7,2,0.5,18,3,1,L,0.224531914893617,0.3003076923076922,0.1762222222222222,0.2788571428571428
9,8,15,1,3,28.120999999999977,13,120,13,28,24,33,216.06200000001425,0.061,1.2199999999999993,0.061,20,1,3,1,852,1,4,1,5,0,22,5.5,1,L,0.253593896713615,0.061,0.3049999999999999,0.061
9,8,16,1,7,10.125999999999992,20,53,2,3,9,69,13.23699999999999,14.517999999999988,8.356999999999994,0.488,20,18,18,1,64,62,40,1,6,0.5,40,5.5,1,L,0.20682812499999997,0.23416129032258062,0.208925,0.488
9,9,17,1,14,37.39299999999997,11,177,85,89,66,11,37.51499999999997,6.099999999999995,6.709999999999995,12.01699999999999,12,15,15,17,178,28,28,44,3,0,16,4,1,L,0.2107584269662921,0.21785714285714283,0.2396428571428571,0.27311363636363634
9,9,18,1,8,31.719999999999974,14,131,81,25,99,102,62.28099999999995,3.4159999999999973,0.122,2.9889999999999977,20,11,1,11,252,13,1,14,2,0,12,3,1,L,0.24714682539682536,0.26276923076923075,0.122,0.2135
9,10,19,1,2,17.018999999999988,18,87,55,9,11,12,19.946999999999985,9.820999999999993,6.038999999999995,5.123999999999996,20,18,16,12,101,47,26,17,4,0.5,40,5.5,1,L,0.19749504950495048,0.2089574468085106,0.23226923076923073,0.30141176470588227
9,10,20,1,1,50.75199999999996,17,209,81,77,73,68,54.16799999999996,0.7319999999999998,1.2199999999999993,9.881999999999993,20,2,5,17,225,2,6,41,3,0.5,22,3.25,1,L,0.24074666666666664,0.36599999999999994,0.20333333333333328,0.2410243902439024
9,11,21,1,2,9.454999999999993,17,54,49,52,56,60,10.979999999999992,1.3419999999999992,1.9519999999999986,5.550999999999996,20,5,6,13,61,7,8,27,4,1,48,4,1,L,0.18,0.1917142857142857,0.244,0.20559259259259255
9,11,22,1,15,16.40899999999999,20,75,20,13,21,24,19.153999999999986,0.7929999999999997,1.585999999999999,1.9519999999999986,20,3,5,9,88,3,5,11,6,1,72,6,1,L,0.21765909090909089,0.2643333333333333,0.3172,0.17745454545454545
10,1,1,1,3,17.445999999999987,19,99,32,31,28,87,17.567999999999987,2.0739999999999985,3.1109999999999975,9.698999999999993,20,7,9,15,100,7,11,46,5,0.5,33,4.5,1,L,0.17568,0.29628571428571426,0.2828181818181818,0.2108478260869565
10,1,2,1,12,27.754999999999978,17,126,48,63,67,4,33.671999999999976,8.356999999999994,1.7079999999999989,33.610999999999976,20,13,5,17,149,32,6,134,5,0,19,4.75,1,L,0.22598657718120804,0.26115625,0.2846666666666666,0.25082835820895516
10,2,3,1,15,24.09499999999998,19,108,22,18,21,23,24.15599999999998,0.305,7.624999999999994,2.622999999999998,20,2,14,10,109,2,29,11,6,1,72,6,1,L,0.22161467889908254,0.1525,0.2629310344827586,0.23845454545454545
10,2,4,1,2,10.064999999999992,14,53,52,96,57,60,10.613999999999992,14.517999999999988,0.122,12.38299999999999,18,16,2,15,57,54,2,41,4,0.5,27,3.75,1,L,0.18621052631578947,0.2688518518518518,0.061,0.30202439024390243
10,3,5,1,8,41.05299999999997,16,174,99,97,45,41,41.29699999999997,1.2199999999999993,11.345999999999991,2.1349999999999985,17,4,16,6,175,4,44,9,2,0,14,3.5,1,L,0.23598285714285713,0.305,0.2578636363636363,0.23722222222222217
10,3,6,1,3,15.676999999999987,16,80,25,31,2,73,17.628999999999987,10.796999999999992,47.76299999999996,0.183,20,17,18,2,91,44,201,2,5,0,19,4.75,1,L,0.1937252747252747,0.24538636363636362,0.23762686567164176,0.0915
10,4,7,1,1,30.438999999999975,20,145,40,76,74,44,40.99199999999997,1.463999999999999,2.8669999999999978,0.305,20,7,11,1,181,7,12,1,3,0,16,4,1,L,0.22647513812154693,0.20914285714285713,0.23891666666666667,0.305
10,4,8,1,14,26.22999999999998,19,113,92,27,60,18,27.510999999999978,2.2569999999999983,8.173999999999994,3.1109999999999975,20,6,15,10,118,9,28,11,3,0,18,4.5,1,L,0.23314406779661015,0.25077777777777777,0.29192857142857137,0.2828181818181818
10,5,9,1,15,20.129999999999985,17,96,15,13,20,75,20.556999999999984,1.3419999999999992,11.162999999999991,1.8299999999999987,20,6,16,6,99,6,46,7,6,0.5,39,5.25,1,L,0.20764646464646463,0.22366666666666665,0.24267391304347824,0.2614285714285714
10,5,10,1,7,17.933999999999987,19,74,6,3,33,27,18.360999999999986,2.8669999999999978,0.7929999999999997,7.197999999999994,20,11,3,13,77,14,3,35,6,0,22,5.5,1,L,0.23845454545454545,0.20478571428571424,0.2643333333333333,0.20565714285714284
10,6,11,1,12,26.41299999999998,20,129,43,38,40,47,28.425999999999977,0.6709999999999998,0.488,7.319999999999994,20,3,3,12,136,4,3,27,5,1,60,5,1,L,0.2090147058823529,0.16775,0.16266666666666665,0.2711111111111111
10,6,12,1,2,28.120999999999977,17,116,33,31,27,3,32.63499999999998,12.01699999999999,1.585999999999999,9.027999999999993,20,18,3,17,132,56,3,36,4,0.5,36,5.25,1,L,0.24723484848484845,0.2145892857142857,0.5286666666666665,0.25077777777777777
10,7,13,1,7,17.933999999999987,16,81,7,96,31,93,17.994999999999987,10.552999999999992,3.720999999999997,1.0979999999999994,17,16,9,4,82,45,13,4,6,0,17,4.25,1,L,0.2194512195121951,0.2345111111111111,0.2862307692307692,0.27449999999999997
10,7,14,1,11,39.16199999999997,17,193,70,65,19,18,40.25999999999997,0.122,3.659999999999997,14.334999999999988,20,1,10,16,198,1,13,62,4,0,20,5,1,L,0.2033333333333333,0.122,0.2815384615384615,0.2312096774193548
10,8,15,1,14,27.08399999999998,20,126,95,85,93,23,33.305999999999976,0.7319999999999998,2.439999999999998,5.489999999999996,20,5,11,15,151,5,12,23,3,0.5,24,3.75,1,L,0.22056953642384106,0.1464,0.2033333333333333,0.238695652173913
10,8,16,1,1,23.362999999999982,18,119,75,34,2,70,23.42399999999998,10.491999999999992,3.720999999999997,4.574999999999997,19,17,11,12,120,46,19,17,3,0,18,4.5,1,L,0.19519999999999998,0.2280869565217391,0.19584210526315787,0.2691176470588235
10,9,17,1,14,14.456999999999988,20,81,96,49,7,56,14.578999999999988,27.388999999999978,15.432999999999987,10.552999999999992,20,19,16,17,83,95,51,40,3,0,17,4.25,1,L,0.17565060240963853,0.28830526315789473,0.30260784313725486,0.2638249999999999
10,9,18,1,1,29.035999999999976,20,146,73,82,79,65,29.279999999999976,1.4029999999999991,0.9759999999999995,7.8689999999999936,20,5,6,13,147,5,7,36,3,0.5,22,3.25,1,L,0.19918367346938776,0.2806,0.13942857142857143,0.21858333333333332
10,10,19,1,13,22.386999999999983,18,89,116,117,110,14,22.752999999999982,4.086999999999997,4.025999999999997,4.940999999999996,20,12,11,13,93,18,16,28,2,0.5,18,3,1,L,0.2446559139784946,0.22705555555555554,0.25162499999999993,0.1764642857142857
10,10,20,1,8,21.898999999999983,17,96,102,107,100,104,22.020999999999983,3.2939999999999974,0.305,4.269999999999997,18,10,2,12,97,15,2,19,2,1,24,2,1,L,0.22702061855670103,0.21959999999999996,0.1525,0.22473684210526315
10,11,21,1,13,19.458999999999985,14,79,110,64,116,67,21.166999999999984,8.844999999999994,3.537999999999997,1.0369999999999995,20,16,11,4,88,29,15,5,2,0,12,3,1,L,0.2405340909090909,0.30499999999999994,0.23586666666666664,0.20739999999999997
10,11,22,1,3,21.532999999999983,20,99,27,12,5,2,21.837999999999983,38.85699999999997,1.3419999999999992,9.515999999999993,20,19,4,13,102,143,4,34,5,0.5,41,5.75,1,L,0.21409803921568626,0.2717272727272727,0.33549999999999996,0.2798823529411764
11,1,1,1,15,14.700999999999988,13,79,20,19,18,50,14.761999999999988,5.428999999999996,6.648999999999995,7.9299999999999935,14,12,14,15,80,20,35,27,6,0.5,40,5.5,1,L,0.184525,0.27144999999999997,0.18997142857142857,0.29370370370370363
11,1,2,1,7,11.71199999999999,18,59,11,2,1,9,12.26099999999999,0.9759999999999995,12.93199999999999,1.2199999999999993,20,4,17,7,62,6,52,9,6,1,72,6,1,L,0.19775806451612904,0.16266666666666665,0.24869230769230766,0.13555555555555554
11,2,3,1,13,11.467999999999991,19,65,111,113,1,3,11.528999999999991,0.061,81.13000000000193,0.061,20,1,18,1,66,1,358,1,2,0,16,4,1,L,0.1746818181818182,0.061,0.22662011173184357,0.061
11,2,4,1,8,24.76599999999998,19,133,102,99,14,17,25.43699999999998,1.7079999999999989,1.0369999999999995,10.613999999999992,20,7,5,15,137,7,5,47,2,0,16,4,1,L,0.1856715328467153,0.24399999999999994,0.2074,0.22582978723404254
11,3,5,1,2,13.11499999999999,20,76,2,59,56,11,17.689999999999987,1.463999999999999,2.1349999999999985,4.208999999999997,20,10,8,14,97,11,11,22,4,0,20,5,1,L,0.18237113402061855,0.1330909090909091,0.19409090909090906,0.1913181818181818
11,3,6,1,13,21.776999999999983,19,94,19,88,114,113,66.18499999999995,0.8539999999999996,0.7929999999999997,0.244,20,4,4,2,270,4,4,2,2,0,13,3.25,1,L,0.24512962962962961,0.2135,0.19824999999999998,0.122
11,4,7,1,13,23.118999999999982,16,113,110,117,109,113,23.240999999999982,0.6099999999999999,3.537999999999997,4.635999999999997,17,5,11,11,114,5,12,17,2,1,24,2,1,L,0.20386842105263156,0.122,0.2948333333333333,0.27270588235294113
11,4,8,1,8,29.828999999999976,17,115,105,106,98,104,29.950999999999976,2.622999999999998,0.061,0.6709999999999998,18,11,1,3,116,13,1,3,2,1,24,2,1,L,0.25819827586206895,0.20176923076923076,0.061,0.22366666666666665
11,5,9,1,3,23.85099999999998,18,106,30,26,3,27,23.91199999999998,2.622999999999998,11.406999999999991,9.393999999999993,19,12,15,17,107,16,51,37,5,0.5,36,5.25,1,L,0.22347663551401867,0.16393749999999999,0.22366666666666665,0.2538918918918919
11,5,10,1,15,26.90099999999998,20,120,19,14,21,24,29.096999999999976,12.32199999999999,6.8929999999999945,0.183,20,19,17,3,132,45,32,3,6,1,72,6,1,L,0.22043181818181815,0.2738222222222222,0.21540625,0.061
11,6,11,1,13,11.83399999999999,15,65,2,58,57,6,382.0429999999821,0.122,0.061,0.061,20,1,1,1,1596,1,1,1,2,0,20,5,1,L,0.239375313283208,0.122,0.061,0.061
11,6,12,1,15,20.922999999999984,20,95,13,17,23,98,22.691999999999982,3.0499999999999976,3.9649999999999967,2.9279999999999977,20,9,12,7,104,13,15,10,6,0.5,38,5,1,L,0.21819230769230766,0.23461538461538461,0.2643333333333333,0.29279999999999995
11,7,13,1,7,15.676999999999987,17,75,4,2,5,54,15.737999999999987,4.025999999999997,0.061,2.500999999999998,18,12,1,6,76,22,1,9,6,0.5,40,5.5,1,L,0.20707894736842103,0.18299999999999997,0.061,0.27788888888888885
11,7,14,1,12,19.092999999999986,17,78,40,48,61,66,20.251999999999985,1.2809999999999993,9.881999999999993,2.805999999999998,20,4,16,7,83,4,45,11,5,0,18,4.5,1,L,0.24399999999999997,0.32025,0.2196,0.25509090909090903
11,8,15,1,15,14.273999999999988,19,57,22,14,13,37,14.578999999999988,3.598999999999997,1.463999999999999,14.456999999999988,20,13,7,16,61,16,9,62,6,0.5,41,5.75,1,L,0.23899999999999996,0.22493749999999998,0.16266666666666665,0.23317741935483868
11,8,16,1,3,8.478999999999994,18,39,1,36,91,93,30.31699999999998,0.061,0.183,0.183,20,1,2,1,126,1,2,1,5,0,17,4.25,1,L,0.24061111111111108,0.061,0.0915,0.183
11,9,17,1,14,20.251999999999985,20,98,105,1,98,68,41.96799999999997,10.247999999999992,0.061,0.7929999999999997,20,14,1,4,186,43,1,4,3,0,14,3.5,1,L,0.2256344086021505,0.23832558139534882,0.061,0.19824999999999998
11,9,18,1,1,61.73199999999995,14,264,75,15,76,84,64.90399999999995,1.2809999999999993,0.183,4.025999999999997,20,3,2,11,275,4,2,18,3,0.5,24,3.75,1,L,0.23601454545454542,0.3202499999999999,0.0915,0.22366666666666665
11,10,19,1,14,23.179999999999982,19,93,90,87,37,16,23.362999999999982,4.513999999999997,4.208999999999997,4.330999999999997,20,11,8,11,94,16,16,19,3,0,17,4.25,1,L,0.24854255319148932,0.28212499999999996,0.2630625,0.22794736842105262
11,10,20,1,1,13.17599999999999,20,62,78,83,59,98,13.785999999999989,10.674999999999992,1.0369999999999995,2.744999999999998,20,17,5,11,66,36,5,15,3,0,12,3,1,L,0.20887878787878786,0.2965277777777777,0.20739999999999997,0.183
12,1,1,1,13,20.800999999999984,20,103,109,110,112,57,21.837999999999983,1.2809999999999993,0.7319999999999998,6.8929999999999945,20,7,3,14,105,9,4,32,2,0.5,16,2.5,1,L,0.20798095238095238,0.14233333333333334,0.183,0.21540625
12,1,2,1,11,26.65699999999998,20,122,63,67,70,41,28.486999999999977,2.439999999999998,2.1959999999999984,4.7579999999999965,20,9,6,13,135,13,9,20,4,0.5,29,4.25,1,L,0.2110148148148148,0.18769230769230769,0.244,0.2379
12,2,3,1,1,19.214999999999986,20,97,81,78,49,1,19.458999999999985,7.014999999999994,1.8909999999999987,6.526999999999995,20,14,10,17,99,29,14,34,3,0,16,4,1,L,0.19655555555555554,0.2418965517241379,0.13507142857142856,0.19197058823529412
12,2,4,1,3,10.552999999999992,16,47,35,19,28,26,11.406999999999991,10.491999999999992,0.061,2.1349999999999985,19,17,1,9,50,39,1,10,5,0.5,36,5.25,1,L,0.22813999999999998,0.26902564102564097,0.061,0.21349999999999997
12,3,5,1,14,36.41699999999997,17,151,91,94,95,59,38.49099999999997,1.1589999999999994,0.8539999999999996,9.088999999999993,20,8,2,16,165,9,3,37,3,0.5,22,3.25,1,L,0.23327878787878786,0.12877777777777777,0.2846666666666667,0.2456486486486486
12,3,6,1,3,42.45599999999997,17,176,30,26,31,33,43.919999999999966,1.7689999999999988,0.488,3.598999999999997,20,10,2,11,181,13,3,14,5,1,60,5,1,L,0.24265193370165744,0.13607692307692307,0.16266666666666665,0.25707142857142856
12,4,7,1,14,29.767999999999976,20,139,94,86,23,38,30.499999999999975,1.2809999999999993,20.068999999999985,0.244,20,6,18,1,144,6,82,1,3,0,17,4.25,1,L,0.21180555555555552,0.21349999999999997,0.24474390243902436,0.244
12,4,8,1,7,19.519999999999985,19,106,8,12,25,114,19.824999999999985,3.598999999999997,33.549999999999976,40.62599999999997,20,8,16,15,109,9,136,154,6,0,19,4.75,1,L,0.1818807339449541,0.3998888888888888,0.2466911764705882,0.26380519480519476
12,5,9,1,13,54.411999999999956,16,240,114,48,46,22,55.204999999999956,6.221999999999995,2.3179999999999983,2.2569999999999983,20,14,6,11,244,20,6,13,2,0,18,4.5,1,L,0.22624999999999998,0.31109999999999993,0.3863333333333333,0.17361538461538462
12,5,10,1,7,19.885999999999985,19,109,8,4,3,79,19.946999999999985,4.452999999999997,3.598999999999997,4.391999999999997,20,14,13,11,110,19,23,18,6,0.5,39,5.25,1,L,0.18133636363636363,0.23436842105263156,0.1564782608695652,0.244
12,6,11,1,11,14.517999999999988,20,72,64,70,101,96,17.262999999999987,9.149999999999993,1.8299999999999987,6.648999999999995,20,16,10,16,86,39,11,27,4,0,13,3.25,1,L,0.20073255813953486,0.2346153846153846,0.16636363636363635,0.2462592592592592
12,6,12,1,1,17.750999999999987,17,85,33,74,80,77,35.806999999999974,1.524999999999999,0.9759999999999995,0.6709999999999998,20,5,7,3,160,5,8,3,3,0.5,23,3.5,1,L,0.22379374999999999,0.305,0.122,0.22366666666666665
12,7,13,1,11,17.628999999999987,19,76,70,69,119,43,19.885999999999985,2.0129999999999986,0.8539999999999996,6.404999999999995,20,6,3,13,81,8,3,29,4,0,15,3.75,1,L,0.24550617283950615,0.251625,0.2846666666666667,0.22086206896551724
12,7,14,1,2,21.471999999999984,19,88,57,56,51,25,21.532999999999983,2.2569999999999983,2.8669999999999978,13.54199999999999,20,9,8,17,89,13,12,64,4,0.5,29,4.25,1,L,0.24194382022471908,0.17361538461538462,0.23891666666666667,0.21159374999999997
12,8,15,1,15,55.021999999999956,17,239,17,100,26,72,55.143999999999956,3.2939999999999974,0.8539999999999996,0.305,18,10,6,2,240,15,6,2,6,0,17,4.25,1,L,0.22976666666666665,0.2196,0.14233333333333334,0.1525
12,8,16,1,2,19.946999999999985,20,92,59,85,56,7,21.471999999999984,6.160999999999995,0.7319999999999998,3.2329999999999974,20,10,3,11,98,15,3,19,4,0,17,4.25,1,L,0.2191020408163265,0.4107333333333333,0.244,0.1701578947368421
12,9,17,1,12,67.64900000000037,15,271,42,44,39,88,68.01500000000037,1.8299999999999987,0.427,0.5489999999999999,18,5,3,1,274,5,3,1,5,0.5,33,4.5,1,L,0.24822992700729923,0.366,0.14233333333333334,0.5489999999999999
12,9,18,1,1,25.61999999999998,20,105,82,74,26,76,28.364999999999977,0.122,9.027999999999993,1.1589999999999994,20,1,17,5,116,1,50,6,3,0.5,23,3.5,1,L,0.24452586206896548,0.122,0.18056,0.19316666666666665
12,10,19,1,8,44.712999999999965,17,162,28,103,106,59,53.74099999999996,0.244,0.9149999999999996,0.305,20,2,4,1,201,2,4,1,2,0,13,3.25,1,L,0.26736815920398005,0.122,0.22875,0.305
12,10,20,1,11,11.83399999999999,20,54,70,5,112,109,12.56599999999999,9.332999999999993,14.578999999999988,3.1719999999999975,20,15,17,7,58,43,60,11,4,0,14,3.5,1,L,0.2166551724137931,0.21704651162790695,0.2429833333333333,0.2883636363636363
12,11,21,1,14,49.22699999999996,18,198,96,95,93,92,49.40999999999996,4.269999999999997,1.0369999999999995,0.061,19,13,4,1,199,19,4,1,3,1,36,3,1,L,0.24829145728643215,0.22473684210526315,0.25925,0.061
12,11,22,1,12,48.67799999999996,19,217,45,46,78,55,52.45999999999996,1.524999999999999,2.3789999999999982,2.805999999999998,20,5,11,11,235,6,13,12,5,0,17,4.25,1,L,0.22323404255319146,0.25416666666666665,0.183,0.23383333333333334
13,1,1,1,2,23.362999999999982,15,125,18,57,53,33,33.122999999999976,0.9759999999999995,0.305,1.8299999999999987,20,3,3,7,165,3,3,10,4,0,19,4.75,1,L,0.20074545454545453,0.32533333333333325,0.10166666666666667,0.183
13,1,2,1,11,11.101999999999991,20,50,1,70,88,103,65.63599999999995,0.061,0.122,0.244,20,1,1,1,289,1,1,1,4,0,15,3.75,1,L,0.22711418685121104,0.061,0.122,0.244
13,2,3,1,2,31.719999999999974,19,136,57,50,58,3,32.08599999999998,4.6969999999999965,7.258999999999994,2.500999999999998,20,10,16,8,137,16,32,12,4,0.5,30,4.5,1,L,0.23420437956204376,0.29356249999999995,0.22684374999999998,0.20841666666666667
13,2,4,1,12,33.427999999999976,15,142,38,42,37,18,34.830999999999975,1.0979999999999994,1.3419999999999992,2.1349999999999985,20,5,4,9,149,5,4,13,5,0.5,36,5.25,1,L,0.2337651006711409,0.21959999999999996,0.3355,0.16423076923076924
13,3,5,1,1,24.03399999999998,19,108,82,77,83,13,28.608999999999977,2.622999999999998,3.598999999999997,2.2569999999999983,20,11,9,5,128,17,12,5,3,0.5,24,3.75,1,L,0.22350781249999999,0.1542941176470588,0.29991666666666666,0.4513999999999998
13,3,6,1,7,51.72799999999996,16,232,5,6,4,29,54.411999999999956,1.0979999999999994,5.001999999999996,0.427,20,4,12,2,244,4,20,2,6,0.5,41,5.75,1,L,0.22299999999999998,0.27449999999999997,0.2501,0.2135
13,4,7,1,7,13.35899999999999,19,68,9,1,96,5,15.249999999999988,4.6969999999999965,4.635999999999997,0.8539999999999996,20,11,14,5,77,18,22,6,6,0.5,39,5.25,1,L,0.19805194805194803,0.2609444444444444,0.21072727272727274,0.14233333333333334
13,4,8,1,3,53.80199999999996,16,244,14,97,30,18,69.11299999999994,1.2199999999999993,0.183,1.9519999999999986,20,6,2,10,308,6,2,11,5,0,19,4.75,1,L,0.22439285714285712,0.20333333333333334,0.0915,0.17745454545454545
13,5,9,1,1,25.37599999999998,20,115,77,80,74,75,25.55899999999998,0.9759999999999995,0.488,0.6099999999999999,20,5,2,7,117,5,2,7,3,1,36,3,1,L,0.21845299145299144,0.19519999999999998,0.244,0.08714285714285715
13,5,10,1,15,11.284999999999991,18,60,24,14,21,25,14.090999999999989,0.8539999999999996,1.585999999999999,4.818999999999996,20,2,5,10,69,2,8,16,6,0.5,41,5.75,1,L,0.20421739130434782,0.42699999999999994,0.19824999999999998,0.30118749999999994
13,6,11,1,1,21.288999999999984,17,92,75,76,79,78,21.349999999999984,1.7079999999999989,3.842999999999997,0.427,18,9,12,2,93,11,17,2,3,1,36,3,1,L,0.22956989247311826,0.15527272727272726,0.22605882352941176,0.2135
13,6,12,1,13,23.362999999999982,20,86,115,119,112,40,23.97299999999998,0.427,0.6099999999999999,2.561999999999998,20,3,4,7,90,3,4,9,2,0.5,17,2.75,1,L,0.26636666666666664,0.14233333333333334,0.1525,0.28466666666666657
13,7,13,1,2,14.822999999999988,20,79,59,47,105,1,15.554999999999987,12.62699999999999,5.550999999999996,17.689999999999987,20,15,12,15,84,48,18,72,4,0,17,4.25,1,L,0.18517857142857141,0.2630625,0.3083888888888888,0.2456944444444444
13,7,14,1,13,56.546999999999954,17,244,114,113,119,109,57.217999999999954,3.842999999999997,0.122,0.427,20,13,2,2,247,19,2,2,2,1,24,2,1,L,0.23165182186234815,0.20226315789473684,0.061,0.2135
13,8,15,1,15,12.87099999999999,10,54,23,101,15,106,13.48099999999999,5.672999999999996,1.7079999999999989,2.439999999999998,13,13,6,7,57,21,7,9,6,0,16,4,1,L,0.23650877192982453,0.27014285714285713,0.244,0.2711111111111111
13,8,16,1,7,31.658999999999974,14,141,3,4,38,7,31.780999999999974,10.918999999999992,3.3549999999999973,2.0739999999999985,16,18,13,8,143,56,18,9,6,0.5,41,5.75,1,L,0.22224475524475523,0.19498214285714285,0.18638888888888888,0.23044444444444442
13,9,17,1,12,15.493999999999987,19,73,3,41,8,105,55.204999999999956,0.061,0.488,0.488,20,1,5,3,239,1,5,4,5,0,19,4.75,1,L,0.23098326359832633,0.061,0.09759999999999999,0.122
13,9,18,1,2,13.724999999999989,19,61,50,60,114,109,16.713999999999988,3.903999999999997,30.133999999999975,19.519999999999985,20,11,18,17,76,13,114,100,4,0,12,3,1,L,0.21992105263157893,0.3003076923076923,0.2643333333333333,0.19519999999999998
13,10,19,1,13,20.678999999999984,20,104,120,113,114,109,20.922999999999984,0.244,0.305,1.1589999999999994,20,1,3,5,105,2,3,5,2,1,24,2,1,L,0.19926666666666665,0.122,0.10166666666666667,0.2318
13,10,20,1,14,38.24699999999997,14,164,89,86,60,90,38.85699999999997,2.683999999999998,2.805999999999998,1.463999999999999,17,11,9,5,167,15,11,5,3,0.5,22,3.25,1,L,0.2326766467065868,0.1789333333333333,0.2550909090909091,0.29279999999999995
13,11,21,1,14,21.593999999999983,20,104,70,85,93,89,26.53499999999998,0.488,1.9519999999999986,0.427,20,2,7,3,122,2,8,3,3,0.5,22,3.25,1,L,0.21749999999999997,0.244,0.244,0.14233333333333334
13,11,22,1,15,20.190999999999985,18,85,20,35,15,24,20.251999999999985,10.003999999999992,3.903999999999997,0.6709999999999998,19,16,14,3,86,35,18,3,6,0.5,41,5.75,1,L,0.23548837209302323,0.2858285714285714,0.21688888888888885,0.22366666666666665
14,1,1,1,3,15.249999999999988,19,75,64,72,17,32,20.678999999999984,4.147999999999997,8.844999999999994,0.061,20,13,16,1,99,18,31,1,5,0,19,4.75,1,L,0.20887878787878786,0.23044444444444442,0.28532258064516125,0.061
14,1,2,1,13,26.22999999999998,20,119,118,60,112,88,26.83999999999998,14.517999999999988,2.9279999999999977,4.208999999999997,20,16,11,12,124,63,13,24,2,0,11,2.75,1,L,0.2164516129032258,0.23044444444444442,0.22523076923076923,0.175375
14,2,3,1,3,41.29699999999997,15,185,31,34,30,35,41.66299999999997,2.805999999999998,1.0369999999999995,1.2809999999999993,19,12,4,4,189,17,4,4,5,1,60,5,1,L,0.22043915343915343,0.16505882352941176,0.25925,0.3202499999999999
14,2,4,1,13,14.395999999999988,19,72,109,66,120,112,15.676999999999987,10.857999999999992,5.367999999999996,0.061,20,16,13,1,78,34,23,1,2,0.5,16,2.5,1,L,0.20098717948717948,0.31935294117647056,0.23339130434782607,0.061
14,3,5,1,13,27.327999999999978,19,128,112,113,115,58,29.340999999999976,1.7689999999999988,0.061,3.2939999999999974,20,7,1,10,136,8,1,16,2,0.5,16,2.5,1,L,0.2157426470588235,0.22112499999999996,0.061,0.205875
14,3,6,1,11,22.996999999999982,20,114,74,8,69,62,41.17499999999997,1.524999999999999,0.061,1.646999999999999,20,6,1,8,195,7,1,8,4,0,17,4.25,1,L,0.21115384615384614,0.21785714285714283,0.061,0.20587499999999997
14,4,7,1,7,15.554999999999987,17,72,9,10,5,26,16.530999999999988,0.122,14.761999999999988,1.4029999999999991,20,2,16,3,75,2,50,3,6,0.5,41,5.75,1,L,0.22041333333333332,0.061,0.29523999999999995,0.4676666666666665
14,4,8,1,8,11.345999999999991,18,57,97,99,105,108,11.95599999999999,2.9279999999999977,0.366,1.2809999999999993,20,6,5,5,60,8,5,5,2,1,24,2,1,L,0.19926666666666665,0.36599999999999994,0.0732,0.25619999999999993
14,5,9,1,8,24.39999999999998,18,120,98,101,100,91,26.16899999999998,1.4029999999999991,6.465999999999995,0.6099999999999999,20,7,17,4,128,10,26,4,2,0.5,15,2.25,1,L,0.20444531249999998,0.1403,0.24869230769230766,0.1525
14,5,10,1,7,10.369999999999992,14,52,6,11,5,8,10.552999999999992,1.8909999999999987,1.463999999999999,0.9759999999999995,16,4,9,3,54,6,9,3,6,1,72,6,1,L,0.19542592592592592,0.31516666666666665,0.16266666666666665,0.32533333333333325
14,6,11,1,14,38.30799999999997,18,175,111,115,117,14,55.50999999999996,10.369999999999992,21.471999999999984,51.72799999999996,20,17,18,17,240,45,101,229,3,0.5,18,3,1,L,0.23129166666666665,0.2304444444444444,0.2125940594059406,0.22588646288209605
14,6,12,1,12,10.003999999999992,13,43,38,48,76,81,11.406999999999991,1.646999999999999,1.3419999999999992,3.9649999999999967,19,7,6,11,49,9,7,14,5,0,16,4,1,L,0.23279591836734692,0.183,0.1917142857142857,0.2832142857142857
14,7,13,1,7,10.491999999999992,19,52,1,5,4,7,11.101999999999991,0.061,5.428999999999996,0.488,20,1,16,2,57,1,32,2,6,1,72,6,1,L,0.1947719298245614,0.061,0.16965624999999998,0.244
14,7,14,1,1,54.22899999999996,17,237,80,38,75,74,54.28999999999996,3.598999999999997,1.1589999999999994,1.0979999999999994,18,11,4,6,238,14,5,6,3,0.5,23,3.5,1,L,0.22810924369747898,0.25707142857142856,0.23179999999999998,0.183
14,8,15,1,7,17.506999999999987,16,88,6,9,1,2,18.726999999999986,0.7319999999999998,5.367999999999996,3.598999999999997,20,4,11,12,93,4,23,17,6,1,72,6,1,L,0.20136559139784946,0.183,0.23339130434782604,0.21170588235294116
14,8,16,1,12,22.935999999999982,19,111,42,16,15,45,23.66799999999998,5.977999999999995,60.57299999999995,0.122,20,16,18,1,115,24,265,1,5,0,22,5.5,1,L,0.20580869565217388,0.2490833333333333,0.228577358490566,0.122
14,9,17,1,3,15.127999999999988,18,69,26,31,106,107,16.22599999999999,2.3179999999999983,15.615999999999987,2.500999999999998,20,10,16,8,76,11,60,12,5,0,14,3.5,1,L,0.2135,0.21072727272727274,0.26026666666666665,0.20841666666666664
14,9,18,1,15,9.393999999999993,15,42,14,18,44,88,10.247999999999992,17.750999999999987,0.244,12.99299999999999,19,19,3,17,46,68,3,42,6,0,20,5,1,L,0.22278260869565217,0.26104411764705876,0.08133333333333333,0.30935714285714283
14,10,19,1,8,51.78899999999996,14,213,101,97,84,44,53.80199999999996,4.208999999999997,2.2569999999999983,3.476999999999997,20,12,8,10,219,15,10,15,2,0,12,3,1,L,0.2456712328767123,0.28059999999999996,0.22569999999999998,0.23179999999999998
14,10,20,1,13,7.807999999999994,15,52,113,20,14,115,9.271999999999993,16.22599999999999,19.214999999999986,2.1349999999999985,20,18,17,6,59,63,87,7,2,0,16,4,1,L,0.15715254237288134,0.25755555555555554,0.22086206896551722,0.30499999999999994
14,11,21,1,2,11.345999999999991,17,61,55,49,52,51,12.13899999999999,3.3549999999999973,0.6709999999999998,1.524999999999999,20,13,3,9,65,16,3,12,4,1,48,4,1,L,0.18675384615384613,0.20968749999999997,0.22366666666666665,0.12708333333333333
14,11,22,1,13,8.539999999999994,17,44,119,87,117,110,15.18899999999999,20.434999999999985,0.9149999999999996,0.5489999999999999,20,17,4,2,75,80,6,2,2,0.5,15,2.25,1,L,0.20251999999999998,0.2554375,0.1525,0.27449999999999997
15,1,1,1,8,26.53499999999998,19,132,107,101,102,16,29.340999999999976,3.1109999999999975,0.7319999999999998,6.160999999999995,20,9,2,13,142,9,2,25,2,0.5,18,3,1,L,0.20662676056338028,0.34566666666666657,0.3659999999999999,0.24643999999999996
15,1,2,1,12,25.19299999999998,20,119,39,47,41,40,26.41299999999998,2.622999999999998,0.7319999999999998,0.427,20,7,4,2,124,8,4,2,5,1,60,5,1,L,0.21300806451612903,0.32787499999999997,0.183,0.2135
15,2,3,1,13,28.669999999999977,18,158,113,6,114,78,28.852999999999977,4.574999999999997,4.391999999999997,3.476999999999997,20,12,14,7,160,20,16,12,2,0,13,3.25,1,L,0.18033125,0.22874999999999998,0.27449999999999997,0.28974999999999995
15,2,4,1,3,13.23699999999999,17,68,28,27,104,86,13.785999999999989,1.8909999999999987,7.319999999999994,21.471999999999984,20,8,14,17,72,10,24,85,5,0,15,3.75,1,L,0.1914722222222222,0.1891,0.30499999999999994,0.2526117647058823
15,3,5,1,2,56.302999999999955,17,260,2,42,60,80,58.07199999999995,4.025999999999997,0.7319999999999998,2.0129999999999986,20,11,5,7,270,15,5,8,4,0,18,4.5,1,L,0.21508148148148146,0.26839999999999997,0.1464,0.251625
15,3,6,1,11,15.249999999999988,20,80,72,69,67,65,15.859999999999987,2.8669999999999978,0.305,4.086999999999997,20,8,3,12,84,12,3,16,4,1,48,4,1,L,0.18880952380952382,0.23891666666666664,0.10166666666666667,0.2554375
15,4,7,1,3,9.820999999999993,14,46,25,34,33,35,10.735999999999992,0.061,2.500999999999998,3.1109999999999975,18,1,10,8,51,1,12,11,5,1,60,5,1,L,0.21050980392156862,0.061,0.20841666666666664,0.2828181818181818
15,4,8,1,13,15.859999999999987,17,77,116,94,119,118,19.031999999999986,2.8669999999999978,0.183,0.244,20,7,3,3,93,8,3,3,2,0.5,15,2.25,1,L,0.20464516129032256,0.35837499999999994,0.061,0.08133333333333333
15,5,9,1,1,50.93499999999996,19,247,13,80,77,23,56.729999999999954,0.9149999999999996,0.061,10.552999999999992,20,6,1,16,274,8,1,42,3,0,18,4.5,1,L,0.20704379562043795,0.114375,0.061,0.25126190476190474
15,5,10,1,13,23.66799999999998,20,105,117,113,7,114,25.49799999999998,2.1959999999999984,0.8539999999999996,0.7319999999999998,20,11,3,5,111,13,3,5,2,0.5,18,3,1,L,0.22971171171171167,0.16892307692307693,0.2846666666666667,0.1464
15,6,11,1,15,18.543999999999986,20,94,13,37,17,47,18.787999999999986,7.624999999999994,11.589999999999991,0.7929999999999997,20,14,16,2,96,35,58,2,6,0,22,5.5,1,L,0.19570833333333332,0.21785714285714283,0.19982758620689653,0.3964999999999999
15,6,12,1,3,17.323999999999987,11,80,31,30,26,28,18.909999999999986,0.6709999999999998,1.3419999999999992,2.622999999999998,16,4,6,9,86,4,6,12,5,1,60,5,1,L,0.21988372093023253,0.16775,0.22366666666666665,0.21858333333333332
15,7,13,1,7,17.323999999999987,20,73,1,11,9,116,17.384999999999987,9.820999999999993,2.8669999999999978,3.0499999999999976,20,17,12,7,74,37,12,9,6,0.5,38,5,1,L,0.2349324324324324,0.26543243243243236,0.23891666666666664,0.33888888888888885
15,7,14,1,14,36.66099999999997,20,189,69,85,90,13,39.77199999999997,0.427,2.744999999999998,1.4029999999999991,20,2,9,6,199,2,12,6,3,0,16,4,1,L,0.19985929648241205,0.2135,0.22875,0.23383333333333334
15,8,15,1,3,18.970999999999986,19,87,25,30,27,17,19.153999999999986,2.3179999999999983,1.9519999999999986,10.674999999999992,20,8,7,17,89,9,9,56,5,0.5,36,5.25,1,L,0.2152134831460674,0.25755555555555554,0.21688888888888888,0.190625
15,8,16,1,2,20.800999999999984,19,108,57,54,55,83,20.861999999999984,0.244,1.2199999999999993,5.245999999999996,20,1,4,7,109,1,5,13,4,0.5,27,3.75,1,L,0.19139449541284403,0.244,0.24399999999999997,0.40353846153846146
15,9,17,1,2,32.57399999999998,19,152,59,50,1,12,35.135999999999974,3.842999999999997,1.0979999999999994,0.366,20,12,4,3,160,15,4,3,4,0,20,5,1,L,0.2196,0.2562,0.27449999999999997,0.122
15,9,18,1,11,20.861999999999984,20,99,69,61,68,24,22.630999999999982,2.0129999999999986,12.26099999999999,0.9759999999999995,20,8,16,8,109,11,47,8,4,0.5,30,4.5,1,L,0.20762385321100915,0.183,0.2608723404255319,0.122
15,10,19,1,2,18.421999999999986,17,80,59,53,7,80,18.787999999999986,2.0739999999999985,9.820999999999993,10.857999999999992,19,9,17,16,82,12,46,41,4,0,17,4.25,1,L,0.22912195121951218,0.17283333333333334,0.21349999999999997,0.2648292682926829
15,10,20,1,13,31.475999999999974,16,126,112,118,115,116,35.379999999999974,0.305,5.611999999999996,1.0369999999999995,20,2,16,4,140,2,24,4,2,1,24,2,1,L,0.25271428571428567,0.1525,0.2338333333333333,0.25925
15,11,21,1,15,6.282999999999995,13,29,16,15,18,53,7.929999999999994,13.907999999999989,0.183,0.366,18,14,1,2,35,54,1,2,6,0.5,40,5.5,1,L,0.22657142857142856,0.25755555555555554,0.183,0.183
15,11,22,1,12,41.84599999999997,15,185,47,43,41,10,42.02899999999997,1.524999999999999,3.3549999999999973,6.709999999999995,16,7,10,13,187,8,16,21,5,0.5,36,5.25,1,L,0.22475401069518713,0.190625,0.20968749999999997,0.3195238095238095
15,12,23,1,15,39.77199999999997,18,181,15,21,16,20,39.83299999999997,1.4029999999999991,1.7079999999999989,2.9889999999999977,19,5,6,10,182,5,7,16,6,1,72,6,1,L,0.21886263736263734,0.28059999999999996,0.24399999999999997,0.1868125
15,12,24,1,12,21.410999999999984,20,107,41,39,68,118,24.39999999999998,0.6709999999999998,18.116999999999987,0.488,20,3,17,2,117,3,81,2,5,0,16,4,1,L,0.20854700854700853,0.22366666666666665,0.22366666666666665,0.244
16,1,1,1,15,20.861999999999984,20,97,70,14,22,18,30.37799999999998,0.488,0.061,0.7929999999999997,20,1,1,3,134,1,1,3,6,0.5,40,5.5,1,L,0.22670149253731342,0.488,0.061,0.2643333333333333
16,1,2,1,7,14.273999999999988,20,75,12,3,6,9,16.591999999999988,0.7319999999999998,0.061,7.441999999999994,20,3,1,16,87,3,1,34,6,1,72,6,1,L,0.1907126436781609,0.244,0.061,0.21888235294117644
16,2,3,1,2,42.15099999999997,17,203,51,59,108,49,43.55399999999997,0.244,2.622999999999998,0.183,20,1,9,1,213,1,12,1,4,0.5,26,3.5,1,L,0.2044788732394366,0.244,0.2185833333333333,0.183
16,2,4,1,11,60.14599999999995,16,278,10,66,36,96,62.40299999999995,6.282999999999995,2.683999999999998,12.07799999999999,20,16,10,12,283,30,11,40,4,0,18,4.5,1,L,0.22050530035335686,0.2094333333333333,0.24399999999999997,0.30194999999999994
16,3,5,1,11,32.939999999999976,16,140,71,15,19,21,34.037999999999975,25.49799999999998,3.476999999999997,0.122,20,19,13,1,145,112,18,1,4,0.5,40,5.5,1,L,0.23474482758620688,0.22766071428571427,0.19316666666666665,0.122
16,3,6,1,3,12.56599999999999,17,66,30,4,34,91,12.93199999999999,46.298999999999964,0.427,0.244,20,19,4,3,70,210,4,3,5,0,19,4.75,1,L,0.18474285714285713,0.22047142857142857,0.10675,0.08133333333333333
16,4,7,1,15,17.567999999999987,18,81,15,16,23,37,19.214999999999986,0.7929999999999997,3.781999999999997,13.48099999999999,20,5,8,15,88,5,13,54,6,0.5,41,5.75,1,L,0.2183522727272727,0.1586,0.2909230769230769,0.24964814814814812
16,4,8,1,3,16.957999999999988,18,80,26,30,33,72,17.872999999999987,1.0369999999999995,0.061,5.611999999999996,20,4,1,12,85,4,1,19,5,0.5,34,4.75,1,L,0.2102705882352941,0.25925,0.061,0.29536842105263156
16,5,9,1,14,18.726999999999986,19,95,89,88,91,55,19.824999999999985,0.244,1.8909999999999987,10.064999999999992,20,2,7,13,101,2,7,38,3,0.5,22,3.25,1,L,0.19628712871287127,0.122,0.27014285714285713,0.2648684210526316
16,5,10,1,1,8.966999999999993,18,43,77,84,76,28,10.003999999999992,2.0129999999999986,0.061,24.58299999999998,20,4,1,17,46,5,1,103,3,0.5,23,3.5,1,L,0.2174782608695652,0.40259999999999985,0.061,0.23866990291262133
16,6,11,1,15,16.713999999999988,19,86,13,17,18,19,17.018999999999988,0.244,1.4029999999999991,5.855999999999995,20,2,4,13,90,3,4,25,6,1,72,6,1,L,0.1891,0.08133333333333333,0.35074999999999995,0.23423999999999998
16,6,12,1,7,10.369999999999992,15,54,1,4,10,29,10.918999999999992,14.578999999999988,0.061,2.0739999999999985,19,16,1,6,58,55,1,9,6,0.5,41,5.75,1,L,0.18825862068965515,0.26507272727272724,0.061,0.23044444444444442
16,7,13,1,15,14.456999999999988,15,77,13,23,16,84,14.578999999999988,5.7339999999999955,12.19999999999999,2.1349999999999985,17,14,18,9,79,21,57,12,6,0.5,39,5.25,1,L,0.18454430379746833,0.273047619047619,0.21403508771929824,0.17791666666666667
16,7,14,1,7,25.31499999999998,20,131,2,4,91,47,25.68099999999998,3.3549999999999973,7.563999999999994,2.622999999999998,20,9,13,7,133,11,30,10,6,0,20,5,1,L,0.19309022556390976,0.30499999999999994,0.2521333333333333,0.2623
16,8,15,1,13,15.920999999999987,20,85,120,113,117,6,17.201999999999988,0.7319999999999998,0.305,4.7579999999999965,20,4,3,12,89,4,3,23,2,0.5,18,3,1,L,0.19328089887640448,0.183,0.10166666666666667,0.20686956521739128
16,8,16,1,11,10.491999999999992,16,51,14,20,45,69,55.692999999999955,0.122,0.122,0.061,20,1,1,1,249,1,1,1,4,0,21,5.25,1,L,0.22366666666666665,0.122,0.122,0.061
16,9,17,1,11,23.362999999999982,20,110,61,39,20,70,33.183999999999976,1.8909999999999987,1.7079999999999989,0.122,20,5,4,1,158,6,6,1,4,0,19,4.75,1,L,0.2100253164556962,0.31516666666666665,0.2846666666666667,0.122
16,9,18,1,7,18.177999999999987,18,83,4,9,7,5,19.702999999999985,2.3789999999999982,0.5489999999999999,2.1959999999999984,20,11,2,11,89,14,2,17,6,1,72,6,1,L,0.2213820224719101,0.16992857142857143,0.27449999999999997,0.12917647058823528
16,10,19,1,13,12.44399999999999,19,56,117,15,18,70,12.68799999999999,31.597999999999974,0.8539999999999996,0.244,20,19,5,2,58,154,5,2,2,0,18,4.5,1,L,0.21875862068965515,0.20518181818181816,0.1708,0.122
16,10,20,1,7,13.602999999999989,18,71,2,7,6,9,13.724999999999989,2.1349999999999985,15.066999999999988,0.183,20,10,17,1,73,11,63,1,6,1,72,6,1,L,0.18801369863013698,0.19409090909090906,0.23915873015873013,0.183
16,11,21,1,12,31.475999999999974,19,154,73,77,79,62,53.98499999999996,0.366,2.3179999999999983,4.269999999999997,20,2,7,14,231,2,7,25,5,0.5,22,3.25,1,L,0.23370129870129866,0.183,0.33114285714285707,0.17079999999999998
16,11,22,1,8,39.03999999999997,15,168,98,97,33,27,39.95499999999997,4.7579999999999965,5.489999999999996,4.940999999999996,18,13,13,14,171,17,27,22,2,0,14,3.5,1,L,0.2336549707602339,0.2798823529411764,0.2033333333333333,0.2245909090909091
16,12,23,1,14,36.23399999999997,18,158,86,28,10,6,37.08799999999997,13.41999999999999,5.977999999999995,12.74899999999999,20,19,13,16,165,59,23,56,3,0,20,5,1,L,0.22477575757575755,0.22745762711864403,0.2599130434782609,0.22766071428571427
16,12,24,1,2,19.702999999999985,20,99,52,55,47,23,20.434999999999985,1.0369999999999995,6.953999999999994,6.8319999999999945,20,5,16,13,104,5,33,26,4,0,19,4.75,1,L,0.1964903846153846,0.2074,0.2107272727272727,0.26276923076923075
17,1,1,1,7,15.371999999999987,19,73,7,12,1,2,16.10399999999999,0.427,3.2329999999999974,4.208999999999997,20,2,9,12,78,2,15,14,6,1,72,6,1,L,0.20646153846153845,0.2135,0.21553333333333333,0.3006428571428571
17,1,2,1,12,22.081999999999983,18,97,48,45,40,17,23.362999999999982,1.2199999999999993,3.598999999999997,1.3419999999999992,20,5,12,5,103,5,14,5,5,0.5,36,5.25,1,L,0.2268252427184466,0.244,0.25707142857142856,0.26839999999999997
17,2,3,1,8,19.519999999999985,16,92,107,103,100,63,20.312999999999985,0.183,4.025999999999997,0.7319999999999998,19,1,11,4,95,1,18,4,2,0.5,16,2.5,1,L,0.21382105263157894,0.183,0.22366666666666665,0.183
17,2,4,1,14,16.28699999999999,16,76,92,91,53,19,16.835999999999988,6.8929999999999945,6.282999999999995,8.417999999999994,20,16,11,15,80,35,19,43,3,0,16,4,1,L,0.21044999999999997,0.19694285714285711,0.33068421052631575,0.1957674418604651
17,3,5,1,15,24.03399999999998,20,123,23,15,18,37,26.41299999999998,8.112999999999994,3.1109999999999975,7.807999999999994,20,16,12,14,133,27,17,29,6,0.5,41,5.75,1,L,0.198593984962406,0.30048148148148146,0.183,0.2692413793103448
17,3,6,1,2,18.665999999999986,20,99,53,51,55,27,19.885999999999985,1.646999999999999,1.463999999999999,1.0369999999999995,20,5,5,6,105,6,7,6,4,0.5,29,4.25,1,L,0.18939047619047616,0.27449999999999997,0.20914285714285713,0.17283333333333334
17,4,7,1,12,17.994999999999987,17,96,38,72,81,19,19.763999999999985,10.064999999999992,2.9279999999999977,3.1719999999999975,20,17,11,10,103,36,15,14,5,0,18,4.5,1,L,0.19188349514563105,0.2795833333333333,0.19519999999999998,0.22657142857142853
17,4,8,1,3,19.580999999999985,19,86,33,34,25,30,27.266999999999978,0.6709999999999998,4.940999999999996,0.6099999999999999,20,4,13,3,117,4,27,3,5,1,60,5,1,L,0.23305128205128203,0.16775,0.183,0.20333333333333334
17,5,9,1,7,9.149999999999993,15,55,2,9,39,54,9.210999999999993,8.112999999999994,7.014999999999994,3.720999999999997,16,16,14,10,56,35,31,14,6,0,21,5.25,1,L,0.16448214285714285,0.23179999999999998,0.22629032258064516,0.26578571428571424
17,5,10,1,15,40.50399999999997,19,180,19,22,13,18,40.56499999999997,0.5489999999999999,0.061,4.818999999999996,20,2,1,11,181,2,1,20,6,1,72,6,1,L,0.22411602209944748,0.27449999999999997,0.061,0.24094999999999997
17,6,11,1,8,25.07099999999998,19,125,101,105,108,73,27.02299999999998,0.488,1.524999999999999,1.2199999999999993,20,2,6,3,138,2,6,3,2,0.5,15,2.25,1,L,0.19581884057971014,0.244,0.25416666666666665,0.4066666666666666
17,6,12,1,15,6.160999999999995,11,34,16,17,22,24,8.905999999999993,0.061,0.7319999999999998,4.940999999999996,20,1,3,13,45,1,3,17,6,1,72,6,1,L,0.1979111111111111,0.061,0.24399999999999997,0.29064705882352937
17,7,13,1,14,38.30799999999997,15,181,30,87,86,94,48.18999999999996,0.488,0.8539999999999996,0.061,20,3,5,1,218,4,6,1,3,0.5,23,3.5,1,L,0.2210550458715596,0.122,0.14233333333333334,0.061
17,7,14,1,15,7.8689999999999936,15,41,23,21,15,19,8.661999999999994,3.0499999999999976,12.13899999999999,3.4159999999999973,20,7,15,13,48,9,49,21,6,1,72,6,1,L,0.18045833333333333,0.33888888888888885,0.24773469387755098,0.16266666666666665
17,8,15,1,7,55.753999999999955,20,230,5,3,7,71,58.31599999999995,1.3419999999999992,1.7079999999999989,5.123999999999996,20,6,7,15,239,8,7,26,6,0.5,40,5.5,1,L,0.24399999999999997,0.16774999999999998,0.244,0.19707692307692307
17,8,16,1,15,10.979999999999992,16,63,16,23,19,54,11.223999999999991,5.7949999999999955,2.622999999999998,5.306999999999996,19,12,11,12,66,21,15,20,6,0.5,40,5.5,1,L,0.17006060606060605,0.27595238095238095,0.17486666666666667,0.26535
17,9,17,1,12,33.732999999999976,20,165,44,41,9,78,33.976999999999975,3.476999999999997,2.3179999999999983,6.8929999999999945,20,14,10,14,167,24,12,32,5,0,19,4.75,1,L,0.20345508982035926,0.144875,0.19316666666666665,0.21540625
17,9,18,1,2,23.66799999999998,17,105,52,57,54,33,24.70499999999998,1.585999999999999,14.212999999999989,17.567999999999987,20,7,16,15,110,8,63,68,4,0.5,29,4.25,1,L,0.2245909090909091,0.19824999999999998,0.22560317460317458,0.25835294117647056
17,10,19,1,12,38.79599999999997,15,171,43,38,40,1,41.96799999999997,2.683999999999998,0.183,4.7579999999999965,20,9,1,11,185,11,1,19,5,0.5,36,5.25,1,L,0.22685405405405404,0.244,0.183,0.25042105263157893
17,10,20,1,15,9.637999999999993,13,53,13,20,21,83,10.003999999999992,3.9649999999999967,0.061,30.865999999999975,16,8,1,16,56,15,1,124,6,0.5,39,5.25,1,L,0.17864285714285713,0.2643333333333333,0.061,0.24891935483870967
17,11,21,1,12,3.0499999999999976,10,16,14,41,47,57,11.589999999999991,2.2569999999999983,1.7079999999999989,5.306999999999996,20,6,8,13,51,7,10,23,5,0,20,5,1,L,0.2272549019607843,0.32242857142857134,0.1708,0.23073913043478259
17,11,22,1,7,12.74899999999999,18,70,9,1,3,8,13.35899999999999,6.8929999999999945,0.244,1.646999999999999,20,12,1,7,76,22,1,8,6,1,72,6,1,L,0.17577631578947367,0.3133181818181818,0.244,0.205875
17,12,23,1,1,14.090999999999989,20,73,76,79,61,70,25.07099999999998,0.488,13.724999999999989,2.439999999999998,20,2,18,9,122,2,51,18,3,0,14,3.5,1,L,0.2055,0.244,0.2691176470588235,0.13555555555555554
17,12,24,1,14,17.384999999999987,15,74,96,87,85,93,19.031999999999986,0.183,0.061,0.305,20,2,1,1,81,2,1,1,3,1,36,3,1,L,0.23496296296296296,0.0915,0.061,0.305
18,1,1,1,14,19.214999999999986,20,79,94,39,86,38,21.227999999999984,3.659999999999997,2.500999999999998,0.7319999999999998,20,13,10,2,90,21,11,2,3,0,16,4,1,L,0.2358666666666666,0.17428571428571427,0.22736363636363635,0.366
18,1,2,1,8,36.47799999999997,15,145,98,6,5,66,37.27099999999997,5.7339999999999955,43.858999999999966,0.122,20,18,18,2,151,31,184,2,2,0,18,4.5,1,L,0.24682781456953637,0.18496774193548388,0.23836413043478258,0.061
18,2,3,1,3,16.22599999999999,18,95,26,25,36,11,17.384999999999987,3.598999999999997,0.122,8.295999999999994,20,11,2,15,101,12,2,34,5,0.5,36,5.25,1,L,0.17212871287128712,0.2999166666666666,0.061,0.24399999999999997
18,2,4,1,14,24.09499999999998,20,123,92,95,94,87,27.14499999999998,0.061,2.500999999999998,3.537999999999997,20,1,9,10,134,1,9,14,3,1,36,3,1,L,0.20257462686567163,0.061,0.2778888888888888,0.2527142857142857
18,3,5,1,15,14.334999999999988,20,78,15,19,106,21,15.493999999999987,9.820999999999993,1.463999999999999,0.122,20,16,6,1,84,43,6,1,6,0.5,38,5,1,L,0.18445238095238095,0.22839534883720927,0.24399999999999997,0.122
18,3,6,1,12,33.854999999999976,14,139,46,50,7,5,35.318999999999974,6.8929999999999945,10.674999999999992,1.2809999999999993,19,13,15,5,144,29,44,5,5,0,21,5.25,1,L,0.2452708333333333,0.23768965517241378,0.24261363636363634,0.2562
18,4,7,1,8,13.663999999999989,20,68,105,42,14,106,14.822999999999988,10.735999999999992,19.214999999999986,15.920999999999987,20,15,17,16,72,33,78,62,2,0,15,3.75,1,L,0.20587499999999997,0.32533333333333325,0.24634615384615383,0.2567903225806451
18,4,8,1,1,10.308999999999992,20,44,75,80,81,82,18.299999999999986,0.6709999999999998,0.9149999999999996,3.4159999999999973,20,7,4,9,85,7,5,12,3,1,36,3,1,L,0.2152941176470588,0.09585714285714285,0.183,0.2846666666666666
18,5,9,1,14,18.726999999999986,19,80,89,71,88,98,28.54799999999998,6.282999999999995,0.183,3.1719999999999975,20,16,2,9,121,38,2,9,3,0,12,3,1,L,0.23593388429752063,0.1653421052631579,0.0915,0.35244444444444434
18,5,10,1,2,29.523999999999976,17,142,51,60,29,55,29.828999999999976,2.8669999999999978,1.7689999999999988,0.488,18,12,3,3,143,14,3,3,4,0.5,29,4.25,1,L,0.2085944055944056,0.20478571428571427,0.5896666666666663,0.16266666666666665
18,6,11,1,12,61.36599999999995,17,267,44,40,55,11,62.95199999999995,0.427,0.6709999999999998,4.7579999999999965,20,2,1,12,272,2,2,20,5,0,20,5,1,L,0.2314411764705882,0.2135,0.3355,0.23789999999999997
18,6,12,1,15,22.020999999999983,20,105,17,13,21,73,23.240999999999982,2.2569999999999983,7.563999999999994,1.2809999999999993,20,8,17,2,111,9,36,3,6,0.5,39,5.25,1,L,0.20937837837837836,0.25077777777777777,0.2101111111111111,0.4269999999999998
18,7,13,1,14,44.590999999999966,18,198,96,92,94,68,46.96999999999996,0.366,1.585999999999999,0.183,20,2,5,1,210,2,6,1,3,0.5,22,3.25,1,L,0.22366666666666665,0.183,0.2643333333333333,0.183
18,7,14,1,15,21.654999999999983,13,113,24,22,14,104,22.935999999999982,0.122,6.526999999999995,0.183,17,1,13,1,117,1,26,1,6,0.5,38,5,1,L,0.196034188034188,0.122,0.25103846153846154,0.183
18,8,15,1,12,32.63499999999998,19,151,37,39,44,116,35.196999999999974,0.244,2.3179999999999983,5.001999999999996,20,2,9,9,162,2,11,12,5,0.5,32,4.25,1,L,0.21726543209876542,0.122,0.21072727272727274,0.4168333333333331
18,8,16,1,11,22.752999999999982,20,110,67,108,16,106,22.813999999999982,23.48499999999998,0.305,0.183,20,18,1,2,111,93,1,2,4,0,14,3.5,1,L,0.20553153153153153,0.2525268817204301,0.305,0.0915
18,9,17,1,1,10.003999999999992,19,50,84,52,102,13,10.125999999999992,4.574999999999997,7.990999999999993,34.464999999999975,20,13,15,16,52,20,38,142,3,0,15,3.75,1,L,0.1947307692307692,0.22874999999999998,0.21028947368421053,0.24271126760563377
18,9,18,1,12,32.14699999999998,18,144,46,47,70,41,32.20799999999998,1.8299999999999987,2.561999999999998,0.8539999999999996,19,10,7,3,145,11,9,3,5,0.5,34,4.75,1,L,0.22212413793103447,0.16636363636363635,0.2846666666666667,0.2846666666666667
18,10,19,1,11,40.56499999999997,18,173,1,2,109,74,154.45200000000568,0.9149999999999996,0.488,0.061,20,7,2,1,620,8,2,1,4,0,17,4.25,1,L,0.24911612903225805,0.114375,0.244,0.061
18,10,20,1,2,19.763999999999985,20,103,52,55,58,34,20.068999999999985,0.7319999999999998,4.574999999999997,4.6969999999999965,20,4,9,11,105,4,17,16,4,0.5,29,4.25,1,L,0.19113333333333332,0.183,0.26911764705882346,0.29356249999999995
18,11,21,1,8,25.37599999999998,20,115,99,98,102,107,25.86399999999998,0.6099999999999999,2.500999999999998,0.061,20,4,10,1,117,4,14,1,2,1,24,2,1,L,0.22105982905982904,0.1525,0.17864285714285713,0.061
18,11,22,1,13,25.13199999999998,20,113,114,115,109,116,26.29099999999998,0.244,0.6099999999999999,1.8299999999999987,20,2,2,6,118,2,2,9,2,1,24,2,1,L,0.2228050847457627,0.122,0.30499999999999994,0.20333333333333334
19,1,1,1,11,15.798999999999987,20,78,18,17,21,20,20.129999999999985,12.80999999999999,0.7319999999999998,0.7319999999999998,20,17,3,3,96,57,3,3,4,1,72,6,1,L,0.20968749999999997,0.22473684210526312,0.244,0.244
19,1,2,1,14,44.468999999999966,12,183,95,94,93,89,47.33599999999996,0.122,2.3179999999999983,1.7689999999999988,20,1,6,7,199,1,10,9,3,1,36,3,1,L,0.23786934673366833,0.122,0.23179999999999995,0.19655555555555554
19,2,3,1,2,23.240999999999982,18,99,16,55,29,58,51.48399999999996,1.0369999999999995,0.427,0.427,20,3,2,3,213,3,2,3,4,0,19,4.75,1,L,0.2417089201877934,0.3456666666666665,0.2135,0.14233333333333334
19,2,4,1,7,21.349999999999984,18,113,1,10,3,43,29.40199999999998,2.683999999999998,0.183,2.561999999999998,20,8,2,6,151,9,2,7,6,0.5,41,5.75,1,L,0.19471523178807945,0.29822222222222217,0.0915,0.3659999999999999
19,3,5,1,15,46.237999999999964,20,174,19,16,20,65,48.25099999999996,2.500999999999998,2.9889999999999977,7.624999999999994,20,10,11,12,187,13,16,27,6,0.5,40,5.5,1,L,0.2580267379679144,0.19238461538461538,0.1868125,0.2824074074074074
19,3,6,1,1,17.689999999999987,18,74,81,83,1,74,19.763999999999985,3.4159999999999973,9.820999999999993,0.122,20,8,13,2,89,13,34,2,3,0.5,24,3.75,1,L,0.22206741573033706,0.2627692307692307,0.28885294117647053,0.061
19,4,7,1,8,19.946999999999985,19,92,106,101,22,15,20.068999999999985,1.3419999999999992,32.51299999999998,0.122,20,5,18,1,93,6,134,1,2,0,16,4,1,L,0.21579569892473116,0.22366666666666665,0.24263432835820894,0.122
19,4,8,1,1,21.715999999999983,16,98,75,84,76,7,23.240999999999982,1.3419999999999992,0.7319999999999998,13.907999999999989,20,6,3,17,105,6,3,53,3,0.5,24,3.75,1,L,0.22134285714285712,0.22366666666666665,0.244,0.2624150943396226
19,5,9,1,3,29.950999999999976,19,153,57,33,26,28,31.292999999999974,0.6709999999999998,1.0979999999999994,1.0369999999999995,20,3,4,2,160,3,4,3,5,0.5,34,4.75,1,L,0.19558124999999998,0.22366666666666665,0.27449999999999997,0.3456666666666666
19,5,10,1,12,17.384999999999987,18,92,103,87,3,4,26.351999999999983,27.815999999999978,2.439999999999998,2.2569999999999983,20,19,8,6,132,114,8,6,5,0,17,4.25,1,L,0.1996363636363636,0.24399999999999997,0.30499999999999994,0.3761666666666666
19,6,11,1,1,40.44299999999997,15,177,78,53,52,21,41.29699999999997,1.2809999999999993,3.476999999999997,5.550999999999996,19,4,10,13,181,7,14,22,3,0,17,4.25,1,L,0.2281602209944751,0.183,0.2483571428571428,0.2523181818181818
19,6,12,1,11,23.118999999999982,17,104,65,63,3,66,24.27799999999998,8.051999999999994,12.93199999999999,34.830999999999975,20,16,16,17,109,30,58,157,4,0.5,30,4.5,1,L,0.2227339449541284,0.26839999999999997,0.2229655172413793,0.22185350318471336
19,7,13,1,13,15.310999999999988,18,81,110,113,115,118,16.469999999999988,0.366,1.4029999999999991,0.305,20,3,5,2,90,3,5,2,2,1,24,2,1,L,0.183,0.122,0.28059999999999996,0.1525
19,7,14,1,3,14.822999999999988,20,81,26,99,5,78,14.883999999999988,9.149999999999993,16.04299999999999,14.090999999999989,20,16,16,17,82,42,66,67,5,0,16,4,1,L,0.18151219512195121,0.21785714285714283,0.24307575757575756,0.21031343283582088
19,8,15,1,14,18.726999999999986,20,76,96,88,85,16,21.776999999999983,0.305,0.6099999999999999,8.478999999999994,20,3,4,12,83,3,4,29,3,0.5,24,3.75,1,L,0.2623734939759036,0.10166666666666667,0.1525,0.29237931034482756
19,8,16,1,11,28.730999999999977,18,121,69,63,66,4,29.096999999999976,0.305,1.8909999999999987,3.781999999999997,19,1,10,11,122,1,11,15,4,0.5,30,4.5,1,L,0.23849999999999996,0.305,0.1719090909090909,0.2521333333333333
19,9,17,1,1,31.719999999999974,15,148,80,73,8,84,34.464999999999975,6.648999999999995,1.0979999999999994,2.622999999999998,20,16,5,10,165,25,5,13,3,0.5,24,3.75,1,L,0.20887878787878786,0.2659599999999999,0.2196,0.20176923076923076
19,9,18,1,12,27.815999999999978,20,140,44,41,43,40,27.876999999999978,1.7079999999999989,0.244,5.977999999999995,20,6,2,14,141,7,3,28,5,1,60,5,1,L,0.197709219858156,0.244,0.08133333333333333,0.2135
19,10,19,1,15,20.861999999999984,17,103,19,23,22,29,21.044999999999984,0.427,2.500999999999998,1.8299999999999987,18,2,9,4,104,2,9,5,6,0.5,41,5.75,1,L,0.2023557692307692,0.2135,0.27788888888888885,0.36599999999999994
19,10,20,1,7,17.689999999999987,13,90,5,2,8,100,18.055999999999987,4.147999999999997,0.7929999999999997,2.1349999999999985,16,11,4,6,93,18,4,7,6,0.5,38,5,1,L,0.1941505376344086,0.23044444444444442,0.19824999999999998,0.305
19,11,21,1,12,39.46699999999997,20,199,37,46,42,44,39.52799999999997,0.061,0.488,0.5489999999999999,20,1,4,4,200,1,4,4,5,1,60,5,1,L,0.19763999999999998,0.061,0.122,0.13724999999999998
19,11,22,1,15,17.811999999999987,19,86,21,14,20,22,20.373999999999985,0.244,4.879999999999996,3.1719999999999975,20,2,14,9,98,2,21,12,6,1,72,6,1,L,0.20789795918367346,0.122,0.23238095238095235,0.2643333333333333
20,1,1,1,15,22.752999999999982,18,118,19,14,24,22,27.632999999999978,6.709999999999995,1.8299999999999987,0.305,20,12,7,2,139,25,9,2,6,1,72,6,1,L,0.19879856115107913,0.2683999999999999,0.2033333333333333,0.1525
20,1,2,1,7,14.578999999999988,20,78,2,4,5,9,15.676999999999987,4.513999999999997,0.427,2.744999999999998,20,11,3,7,82,16,3,9,6,1,72,6,1,L,0.1911829268292683,0.282125,0.14233333333333334,0.30499999999999994
20,2,3,1,7,12.38299999999999,20,75,4,3,12,9,12.44399999999999,6.099999999999995,2.805999999999998,4.269999999999997,20,14,10,13,76,20,12,21,6,1,72,6,1,L,0.16373684210526315,0.30499999999999994,0.23383333333333328,0.2033333333333333
20,2,4,1,11,22.386999999999983,18,108,61,70,72,65,26.77899999999998,2.1959999999999984,0.122,0.305,20,7,1,3,128,9,1,3,4,1,48,4,1,L,0.20921093749999997,0.24399999999999997,0.122,0.10166666666666667
20,3,5,1,15,65.20900000000009,15,307,17,93,100,16,69.05200000000009,20.190999999999985,0.366,2.683999999999998,20,18,2,9,325,84,2,10,6,0,17,4.25,1,L,0.2124676923076923,0.2403690476190476,0.183,0.2683999999999999
20,3,6,1,7,20.190999999999985,19,103,2,5,8,9,23.301999999999982,1.7689999999999988,0.061,0.5489999999999999,20,7,1,6,117,7,1,6,6,1,72,6,1,L,0.19916239316239315,0.25271428571428567,0.061,0.0915
20,4,7,1,3,12.87099999999999,19,55,28,35,58,24,14.639999999999988,4.6969999999999965,3.9649999999999967,2.622999999999998,20,13,12,8,62,22,24,8,5,0,20,5,1,L,0.23612903225806448,0.2135,0.16520833333333332,0.3278749999999999
20,4,8,1,7,13.907999999999989,19,76,9,11,63,90,13.968999999999989,6.038999999999995,13.968999999999989,0.427,20,15,15,2,77,33,56,2,6,0,19,4.75,1,L,0.18141558441558442,0.183,0.24944642857142854,0.2135
20,5,9,1,8,13.05399999999999,16,52,53,101,103,106,27.327999999999978,2.9889999999999977,0.305,2.500999999999998,20,9,3,9,123,11,3,14,2,0.5,16,2.5,1,L,0.22217886178861787,0.27172727272727265,0.10166666666666667,0.17864285714285713
20,5,10,1,13,44.468999999999966,16,203,1,118,115,68,85.52199999999993,0.061,0.061,0.183,20,1,1,1,368,1,1,1,2,0,14,3.5,1,L,0.23239673913043477,0.061,0.061,0.183
20,6,11,1,3,48.49499999999996,16,201,25,31,36,11,48.73899999999996,2.561999999999998,0.6709999999999998,3.0499999999999976,17,13,3,10,202,15,3,17,5,0.5,36,5.25,1,L,0.24128217821782177,0.17079999999999998,0.22366666666666665,0.17941176470588235
20,6,12,1,2,27.632999999999978,20,129,59,55,37,48,29.157999999999976,3.598999999999997,2.9279999999999977,11.95599999999999,20,11,10,15,137,17,14,49,4,0,18,4.5,1,L,0.21283211678832115,0.21170588235294116,0.20914285714285713,0.24399999999999997
20,7,13,1,7,21.288999999999984,20,122,12,6,50,1,21.654999999999983,6.587999999999995,0.8539999999999996,0.7929999999999997,20,13,3,2,125,33,3,3,6,0.5,40,5.5,1,L,0.17323999999999998,0.19963636363636364,0.2846666666666666,0.2643333333333333
20,7,14,1,15,15.005999999999988,18,88,14,23,19,18,15.188999999999988,0.7319999999999998,0.5489999999999999,2.9279999999999977,20,5,3,6,90,5,3,10,6,1,72,6,1,L,0.16876666666666665,0.1464,0.183,0.2927999999999999
20,8,15,1,3,11.467999999999991,18,51,25,31,15,98,15.737999999999989,151.9510000000101,21.898999999999983,81.740000000002,20,18,17,17,73,626,90,361,5,0,18,4.5,1,L,0.2155890410958904,0.24273322683706067,0.2433222222222222,0.2264265927977839
20,8,16,1,11,18.482999999999986,19,85,66,68,1,63,19.580999999999985,0.427,4.086999999999997,1.0979999999999994,20,2,13,5,91,2,19,6,4,0.5,30,4.5,1,L,0.21517582417582418,0.2135,0.21510526315789472,0.183
20,9,17,1,8,25.92499999999998,20,127,103,106,33,97,26.47399999999998,0.122,7.502999999999994,5.184999999999996,20,2,15,17,130,2,29,29,2,0.5,17,2.75,1,L,0.20364615384615384,0.061,0.25872413793103444,0.17879310344827587
20,9,18,1,7,16.16499999999999,13,79,3,9,6,83,16.22599999999999,13.846999999999989,10.491999999999992,1.7079999999999989,14,17,16,7,80,56,38,7,6,0.5,39,5.25,1,L,0.20282499999999998,0.2472678571428571,0.2761052631578947,0.2439999999999999
20,10,19,1,2,48.49499999999996,18,229,50,56,60,7,49.10499999999996,1.7079999999999989,2.439999999999998,4.513999999999997,20,5,8,12,234,6,12,16,4,0.5,30,4.5,1,L,0.20985042735042733,0.2846666666666666,0.20333333333333334,0.28212499999999996
20,10,20,1,12,12.01699999999999,16,65,20,14,16,102,126.02600000000572,2.8669999999999978,7.319999999999994,0.061,20,6,17,1,567,7,29,1,5,0.5,38,5,1,L,0.22226807760141093,0.4095714285714285,0.25241379310344825,0.061
21,1,1,1,11,61.18299999999995,19,267,70,3,2,64,61.97599999999995,0.7319999999999998,4.513999999999997,0.9149999999999996,20,2,12,4,270,3,16,5,4,0,20,5,1,L,0.2295407407407407,0.244,0.28212499999999996,0.183
21,1,2,1,14,21.349999999999984,20,108,90,93,86,95,22.874999999999982,1.7079999999999989,0.183,2.0129999999999986,20,4,2,7,111,5,2,7,3,1,36,3,1,L,0.20608108108108106,0.34159999999999985,0.0915,0.28757142857142853
21,2,3,1,14,27.02299999999998,20,141,86,1,42,85,31.963999999999974,8.234999999999994,6.038999999999995,1.8909999999999987,20,15,15,6,161,37,21,6,3,0,17,4.25,1,L,0.19853416149068323,0.22256756756756754,0.28757142857142853,0.3151666666666666
21,2,4,1,3,10.491999999999992,17,49,61,27,79,18,17.689999999999987,3.476999999999997,13.968999999999989,10.003999999999992,20,12,16,17,76,15,64,41,5,0,18,4.5,1,L,0.2327631578947368,0.23179999999999998,0.218265625,0.24399999999999997
21,3,5,1,11,22.020999999999983,20,110,63,39,3,48,25.37599999999998,3.781999999999997,9.637999999999993,1.4029999999999991,20,10,17,4,121,14,51,5,4,0,20,5,1,L,0.2097190082644628,0.27014285714285713,0.18898039215686274,0.2806
21,3,6,1,13,22.020999999999983,19,91,118,117,116,109,22.874999999999982,0.244,3.659999999999997,1.3419999999999992,20,1,13,5,97,1,20,5,2,1,24,2,1,L,0.2358247422680412,0.244,0.18299999999999997,0.26839999999999997
21,4,7,1,13,22.081999999999983,20,84,116,110,117,114,23.85099999999998,1.0369999999999995,0.061,6.221999999999995,20,4,1,13,92,4,1,27,2,1,24,2,1,L,0.25925,0.25925,0.061,0.23044444444444442
21,4,8,1,15,12.99299999999999,16,74,15,16,20,24,14.578999999999988,1.8909999999999987,0.427,3.842999999999997,20,7,5,10,84,9,5,18,6,1,72,6,1,L,0.1735595238095238,0.2101111111111111,0.0854,0.21349999999999997
21,5,9,1,1,20.068999999999985,16,95,76,70,41,8,21.105999999999984,8.295999999999994,10.186999999999992,0.488,20,15,15,2,102,35,47,2,3,0,18,4.5,1,L,0.20692156862745095,0.2370285714285714,0.21674468085106383,0.244
21,5,10,1,15,24.58299999999998,15,126,24,13,17,19,28.425999999999977,11.83399999999999,1.524999999999999,4.940999999999996,20,18,7,11,146,49,7,15,6,1,72,6,1,L,0.1946986301369863,0.24151020408163262,0.21785714285714286,0.3293999999999999
21,6,11,1,11,19.580999999999985,19,104,61,4,12,9,20.556999999999984,18.421999999999986,5.001999999999996,7.258999999999994,20,18,13,16,111,83,19,29,4,0.5,40,5.5,1,L,0.1851981981981982,0.22195180722891564,0.2632631578947368,0.25031034482758613
21,6,12,1,12,13.41999999999999,19,66,47,40,19,56,18.177999999999987,0.6709999999999998,17.689999999999987,2.3179999999999983,20,2,18,10,92,2,75,14,5,0,20,5,1,L,0.19758695652173913,0.3355,0.23586666666666664,0.16557142857142856
21,7,13,1,12,11.528999999999991,17,61,42,47,45,4,22.264999999999983,0.9149999999999996,0.488,8.478999999999994,20,4,2,14,112,4,2,32,5,0.5,36,5.25,1,L,0.19879464285714285,0.22874999999999998,0.244,0.26496875
21,7,14,1,15,14.395999999999988,13,80,19,23,13,22,15.310999999999988,3.2329999999999974,0.122,1.463999999999999,18,7,1,6,86,10,1,6,6,1,72,6,1,L,0.17803488372093024,0.3232999999999999,0.122,0.244
21,8,15,1,3,22.813999999999982,19,118,36,80,9,63,23.301999999999982,9.393999999999993,10.918999999999992,1.2809999999999993,20,18,18,6,120,50,41,7,5,0,18,4.5,1,L,0.19418333333333332,0.18788,0.26631707317073167,0.183
21,8,16,1,2,25.07099999999998,19,135,54,59,40,43,25.43699999999998,1.0979999999999994,4.513999999999997,12.99299999999999,20,2,13,15,138,2,17,54,4,0,18,4.5,1,L,0.18432608695652172,0.5489999999999997,0.26552941176470585,0.24061111111111108
21,9,17,1,13,10.125999999999992,18,47,110,115,116,1,11.83399999999999,1.585999999999999,0.366,29.340999999999976,20,9,3,17,52,10,3,114,2,0.5,18,3,1,L,0.22757692307692307,0.1586,0.122,0.2573771929824561
21,9,18,1,14,23.42399999999998,16,111,13,46,22,19,106.50600000000213,0.061,0.244,16.652999999999988,20,1,1,17,446,1,1,76,3,0.5,41,5.75,1,L,0.2388026905829596,0.061,0.244,0.21911842105263157
