Subject,Round,Phase,afterbreak,Schema,Schema_RT,Schema_OB,Schema_AS,Cho_1,Cho_2,Cho_3,Cho_4,RT_1,RT_2,RT_3,RT_4,OB_1,OB_2,OB_3,OB_4,AS_1,AS_2,AS_3,AS_4,schema_payoff,AC,performance,payoff,breakR,type,dwellmean_1,dwellmean_2,dwellmean_3,dwellmean_4
1,1,1,0,4,14.578999999999988,19,84,14,65,97,104,35.135999999999974,1.8909999999999987,0.244,0.488,20,7,2,4,169,9,2,4,2,0,14,3.5,6,L,0.20790532544378695,0.21011111111111108,0.122,0.122
1,1,2,0,10,17.201999999999988,19,87,86,94,96,89,19.153999999999986,0.183,0.9149999999999996,0.9759999999999995,20,2,4,5,92,2,4,5,3,1,36,3,6,L,0.20819565217391303,0.0915,0.22874999999999998,0.19519999999999998
1,2,3,0,10,22.874999999999982,20,114,86,96,34,95,22.935999999999982,0.366,9.271999999999993,1.2199999999999993,20,2,16,4,115,2,36,4,3,0.5,23,3.5,6,L,0.19944347826086956,0.183,0.25755555555555554,0.30499999999999994
1,2,4,0,6,17.933999999999987,17,88,5,9,11,37,19.519999999999985,3.0499999999999976,0.061,0.488,20,10,1,4,92,14,1,4,6,0.5,41,5.75,6,L,0.21217391304347824,0.21785714285714283,0.061,0.122
1,3,5,0,1,23.179999999999982,17,110,83,82,73,41,23.240999999999982,0.061,1.3419999999999992,6.343999999999995,18,1,5,14,111,1,6,30,3,0.5,23,3.5,6,L,0.20937837837837836,0.061,0.22366666666666665,0.21146666666666666
1,3,6,0,6,19.519999999999985,16,100,4,6,7,11,22.447999999999983,1.9519999999999986,4.208999999999997,0.122,20,11,12,1,110,11,20,1,6,1,72,6,6,L,0.20407272727272727,0.17745454545454545,0.21044999999999997,0.122
1,4,7,0,2,17.689999999999987,19,88,53,51,73,57,18.848999999999986,7.258999999999994,3.1719999999999975,8.417999999999994,20,14,5,16,90,35,8,41,4,0.5,27,3.75,6,L,0.2094333333333333,0.20739999999999997,0.3964999999999999,0.2053170731707317
1,4,8,0,6,12.50499999999999,19,62,2,6,3,1,12.68799999999999,1.4029999999999991,2.1959999999999984,6.648999999999995,20,7,10,17,65,7,13,32,6,1,72,6,6,L,0.19519999999999998,0.2004285714285714,0.16892307692307693,0.20778125
1,5,9,0,10,19.946999999999985,19,104,87,43,42,9,20.129999999999985,24.21699999999998,4.452999999999997,8.966999999999993,20,19,13,16,105,114,18,33,3,0,19,4.75,6,L,0.1917142857142857,0.2124298245614035,0.24738888888888888,0.2717272727272727
1,5,10,0,8,55.570999999999955,14,231,117,120,31,110,59.84099999999995,0.366,7.624999999999994,1.8299999999999987,20,2,14,6,250,2,28,8,2,0.5,17,2.75,6,L,0.23936399999999997,0.183,0.27232142857142855,0.22875
2,1,1,0,4,22.325999999999983,20,106,46,103,98,66,30.011999999999976,0.183,0.183,2.9279999999999977,20,1,3,8,136,1,3,9,2,0,13,3.25,6,L,0.22067647058823528,0.183,0.061,0.3253333333333333
2,1,2,0,8,22.569999999999983,20,99,116,117,9,115,22.996999999999982,0.8539999999999996,1.463999999999999,0.244,20,5,6,2,102,6,9,2,2,0.5,18,3,6,L,0.2254607843137255,0.14233333333333334,0.16266666666666665,0.122
2,2,3,0,7,16.652999999999988,19,81,14,16,32,26,16.835999999999988,3.598999999999997,5.550999999999996,4.6969999999999965,20,7,15,10,84,9,29,14,6,0,22,5.5,6,L,0.20042857142857143,0.3998888888888888,0.19141379310344828,0.33549999999999996
2,2,4,0,6,15.798999999999987,15,70,4,5,9,12,16.10399999999999,4.208999999999997,0.366,6.648999999999995,17,9,2,15,72,15,2,34,6,1,72,6,6,L,0.22366666666666665,0.28059999999999996,0.183,0.19555882352941176
2,3,5,0,7,29.706999999999976,20,147,19,22,21,40,30.682999999999975,2.500999999999998,4.208999999999997,11.406999999999991,20,7,13,17,151,10,16,51,6,0.5,41,5.75,6,L,0.20319867549668874,0.2501,0.2630625,0.22366666666666665
2,3,6,0,2,20.312999999999985,19,94,9,51,25,58,46.115999999999964,0.061,0.6099999999999999,0.9149999999999996,20,1,2,4,208,1,2,4,4,0,19,4.75,6,L,0.22171153846153846,0.061,0.30499999999999994,0.22875
2,4,7,0,4,22.386999999999983,18,107,108,97,98,68,25.98599999999998,0.061,0.5489999999999999,15.615999999999987,20,1,4,17,125,1,4,57,2,0.5,16,2.5,6,L,0.207888,0.061,0.13724999999999998,0.27396491228070174
2,4,8,0,2,21.898999999999983,20,116,56,31,15,60,22.386999999999983,19.763999999999985,0.9149999999999996,0.9149999999999996,20,18,3,6,120,75,3,6,4,0,19,4.75,6,L,0.18655833333333333,0.26352,0.30499999999999994,0.1525
2,5,9,0,9,17.140999999999988,19,79,70,66,72,24,17.201999999999988,2.1349999999999985,0.122,0.6709999999999998,20,5,1,3,80,7,1,4,4,0.5,30,4.5,6,L,0.215025,0.30499999999999994,0.122,0.16775
2,5,10,0,10,18.665999999999986,18,87,96,93,85,57,19.580999999999985,0.305,2.0739999999999985,9.393999999999993,20,3,6,14,90,3,6,41,3,0.5,22,3.25,6,L,0.21756666666666663,0.10166666666666667,0.3456666666666666,0.22912195121951218
3,1,1,0,1,15.676999999999987,14,68,5,7,83,6,33.000999999999976,1.2199999999999993,3.3549999999999973,2.3789999999999982,20,6,7,5,143,7,11,5,3,0.5,39,5.25,6,L,0.23077622377622375,0.1742857142857143,0.30499999999999994,0.47579999999999983
3,1,2,0,10,22.935999999999982,18,104,89,88,92,21,23.179999999999982,0.366,3.1719999999999975,2.561999999999998,20,2,8,7,106,2,13,8,3,0.5,24,3.75,6,L,0.21867924528301885,0.183,0.244,0.3202499999999999
3,2,3,0,6,15.981999999999987,18,67,7,6,53,52,18.787999999999986,0.061,2.0129999999999986,6.526999999999995,20,1,6,13,79,1,12,25,6,0,20,5,6,L,0.23782278481012656,0.061,0.16775,0.26108
3,2,4,0,4,29.218999999999976,20,141,100,108,98,104,29.706999999999976,0.9759999999999995,0.061,0.183,20,3,1,2,145,5,1,2,2,1,24,2,6,L,0.20487586206896552,0.19519999999999998,0.061,0.0915
3,3,5,0,6,14.517999999999988,15,74,2,10,11,12,14.883999999999988,2.8669999999999978,6.8319999999999945,0.061,18,12,15,1,77,16,39,1,6,1,72,6,6,L,0.19329870129870128,0.1791875,0.17517948717948717,0.061
3,3,6,0,9,24.88799999999998,16,106,16,61,69,63,35.684999999999974,0.122,0.6709999999999998,0.244,20,1,5,2,143,1,5,2,4,0.5,30,4.5,6,L,0.24954545454545451,0.122,0.13419999999999999,0.122
3,4,7,0,6,28.059999999999977,20,132,1,9,4,68,31.414999999999974,3.903999999999997,4.086999999999997,0.366,20,11,12,1,144,16,17,1,6,0.5,40,5.5,6,L,0.2181597222222222,0.244,0.24041176470588235,0.366
3,4,8,0,4,11.101999999999991,17,52,101,102,108,14,12.56599999999999,1.463999999999999,0.061,23.42399999999998,20,6,1,17,59,7,1,103,2,0.5,18,3,6,L,0.2129830508474576,0.20914285714285713,0.061,0.22741747572815532
3,5,9,0,3,20.434999999999985,20,104,33,36,30,28,21.349999999999984,2.8669999999999978,0.305,2.0739999999999985,20,7,1,8,108,8,1,12,5,1,60,5,6,L,0.19768518518518516,0.3583749999999999,0.305,0.17283333333333334
3,5,10,0,7,9.210999999999993,14,52,24,16,19,38,9.698999999999993,9.210999999999993,1.8909999999999987,9.942999999999993,16,16,7,15,54,45,8,41,6,0.5,41,5.75,6,L,0.1796111111111111,0.20468888888888886,0.236375,0.2425121951219512
4,1,1,0,6,21.105999999999984,19,103,7,4,9,50,21.654999999999983,9.637999999999993,0.122,3.2939999999999974,20,19,1,9,109,46,1,11,6,0.5,40,5.5,6,L,0.19866972477064218,0.20952173913043476,0.122,0.2994545454545454
4,1,2,0,4,29.218999999999976,20,149,107,99,100,23,32.57399999999998,0.061,1.2199999999999993,1.8909999999999987,20,1,7,7,161,1,7,10,2,0.5,18,3,6,L,0.20232298136645963,0.061,0.17428571428571427,0.1891
4,2,3,0,7,15.066999999999988,17,73,61,14,23,21,21.959999999999983,0.427,0.9759999999999995,0.122,20,3,5,1,96,3,5,1,6,0.5,40,5.5,6,L,0.22874999999999998,0.14233333333333334,0.19519999999999998,0.122
4,2,4,0,10,27.510999999999978,19,130,2,87,95,59,45.200999999999965,0.061,1.1589999999999994,0.244,20,1,5,2,201,1,6,2,3,0,16,4,6,L,0.22488059701492535,0.061,0.19316666666666665,0.122
4,3,5,0,10,17.140999999999988,20,76,89,87,92,90,17.811999999999987,0.305,3.0499999999999976,6.160999999999995,20,2,10,16,79,2,14,33,3,1,36,3,6,L,0.22546835443037974,0.1525,0.21785714285714286,0.1866969696969697
4,3,6,0,4,25.43699999999998,19,126,102,106,101,97,28.120999999999977,1.524999999999999,2.805999999999998,0.9759999999999995,20,5,9,5,140,6,12,7,2,1,24,2,6,L,0.20086428571428572,0.25416666666666665,0.2338333333333333,0.13942857142857143
4,4,7,0,3,31.353999999999974,18,142,27,26,28,29,31.597999999999974,1.0979999999999994,0.5489999999999999,1.3419999999999992,20,4,2,7,144,4,3,7,5,1,60,5,6,L,0.21943055555555555,0.27449999999999997,0.183,0.1917142857142857
4,4,8,0,8,19.641999999999985,20,92,110,111,6,4,19.946999999999985,1.646999999999999,3.720999999999997,3.476999999999997,20,11,7,9,95,13,7,15,2,0,16,4,6,L,0.20996842105263155,0.1266923076923077,0.5315714285714284,0.23179999999999998
4,5,9,0,4,9.637999999999993,20,49,102,105,67,99,15.37199999999999,1.524999999999999,25.74199999999998,0.061,20,5,18,1,74,6,108,1,2,0.5,16,2.5,6,L,0.20772972972972972,0.25416666666666665,0.23835185185185181,0.061
4,5,10,0,2,69.41800000000057,18,311,49,12,9,3,69.47900000000058,3.659999999999997,8.356999999999994,3.0499999999999976,19,13,16,9,312,23,34,11,4,0.5,40,5.5,6,L,0.22268910256410254,0.1591304347826087,0.2457941176470588,0.2772727272727272
5,1,1,0,4,23.66799999999998,20,121,101,98,66,102,24.64399999999998,0.122,3.2329999999999974,4.452999999999997,20,2,14,11,125,2,23,16,2,0.5,16,2.5,6,L,0.197152,0.061,0.14056521739130434,0.27831249999999996
5,1,2,0,5,46.90899999999996,20,198,48,47,40,8,49.22699999999996,1.4029999999999991,1.9519999999999986,2.9889999999999977,20,8,5,6,208,9,6,8,5,0.5,36,5.25,6,L,0.2366682692307692,0.15588888888888888,0.32533333333333325,0.373625
5,2,3,0,10,28.242999999999977,18,112,87,93,13,88,28.425999999999977,4.086999999999997,3.659999999999997,0.366,19,13,11,4,113,21,15,4,3,0.5,24,3.75,6,L,0.25155752212389376,0.1946190476190476,0.244,0.0915
5,2,4,0,5,13.663999999999989,19,74,12,3,40,6,34.098999999999975,1.0369999999999995,0.244,3.476999999999997,20,4,3,10,153,4,3,11,5,0.5,41,5.75,6,L,0.22286928104575163,0.25925,0.08133333333333333,0.316090909090909
5,3,5,0,9,15.188999999999988,20,79,1,87,6,7,41.29699999999997,1.7689999999999988,0.8539999999999996,0.9149999999999996,20,5,4,7,185,5,4,7,4,0.5,39,5.25,6,L,0.22322702702702701,0.3537999999999999,0.2135,0.1307142857142857
5,3,6,0,8,20.007999999999985,17,90,118,110,57,109,20.495999999999984,1.4029999999999991,6.648999999999995,0.9759999999999995,20,5,14,3,94,5,26,3,2,0.5,16,2.5,6,L,0.21804255319148935,0.28059999999999996,0.2557307692307692,0.32533333333333325
5,4,7,0,1,30.316999999999975,20,147,80,79,15,39,31.048999999999975,2.683999999999998,10.735999999999992,0.8539999999999996,20,7,17,3,151,9,59,3,3,0,17,4.25,6,L,0.20562251655629138,0.29822222222222217,0.18196610169491526,0.2846666666666667
5,4,8,0,6,23.91199999999998,20,119,1,12,2,5,23.97299999999998,1.585999999999999,3.537999999999997,0.122,20,5,13,1,120,7,22,1,6,1,72,6,6,L,0.19977499999999998,0.22657142857142856,0.1608181818181818,0.122
5,5,9,0,6,14.517999999999988,17,68,1,10,2,7,14.761999999999988,6.770999999999995,3.3549999999999973,2.3179999999999983,19,17,13,12,70,38,17,16,6,1,72,6,6,L,0.2108857142857143,0.17818421052631578,0.1973529411764706,0.144875
5,5,10,0,2,31.780999999999974,18,127,58,57,52,55,34.159999999999975,0.305,1.7689999999999988,2.3179999999999983,20,3,7,7,141,3,7,10,4,1,48,4,6,L,0.24226950354609927,0.10166666666666667,0.25271428571428567,0.23179999999999998
6,1,1,0,4,11.528999999999991,18,63,102,104,54,101,14.761999999999988,0.122,4.818999999999996,1.7079999999999989,20,1,10,5,76,1,20,5,2,0.5,16,2.5,6,L,0.19423684210526312,0.122,0.24094999999999997,0.3415999999999999
6,1,2,0,9,33.854999999999976,17,163,65,64,41,77,34.281999999999975,1.1589999999999994,1.524999999999999,2.1959999999999984,18,5,5,5,164,5,5,6,4,0,16,4,6,L,0.20903658536585365,0.23179999999999998,0.305,0.3659999999999999
6,2,3,0,5,21.410999999999984,18,107,71,100,86,106,31.475999999999978,14.029999999999989,1.646999999999999,3.3549999999999973,20,18,5,10,155,53,5,12,5,0,11,2.75,6,L,0.20307096774193548,0.2647169811320754,0.32939999999999997,0.2795833333333333
6,2,4,0,6,30.804999999999975,17,145,10,2,9,57,30.987999999999975,7.380999999999994,10.857999999999992,0.9149999999999996,19,15,17,4,147,35,52,4,6,0.5,40,5.5,6,L,0.21080272108843537,0.21088571428571426,0.2088076923076923,0.22874999999999995
6,3,5,0,1,25.25399999999998,18,115,78,79,71,77,33.244999999999976,2.2569999999999983,1.9519999999999986,0.122,20,5,5,1,152,6,5,1,3,0.5,22,3.25,6,L,0.21871710526315788,0.37616666666666654,0.3903999999999999,0.122
6,3,6,0,2,19.031999999999986,19,85,33,57,2,12,44.773999999999965,0.8539999999999996,0.5489999999999999,7.563999999999994,20,3,3,16,189,4,4,35,4,0,21,5.25,6,L,0.2368994708994709,0.2135,0.13724999999999998,0.2161142857142857
6,4,7,0,3,46.96999999999996,18,209,29,34,102,57,47.15299999999996,0.305,6.343999999999995,2.439999999999998,19,3,14,10,210,3,24,13,5,0,16,4,6,L,0.22453809523809523,0.10166666666666667,0.2643333333333333,0.18769230769230769
6,4,8,0,6,22.874999999999982,19,104,3,11,9,45,22.935999999999982,0.122,6.648999999999995,3.903999999999997,20,1,15,9,105,1,32,16,6,0.5,41,5.75,6,L,0.2184380952380952,0.122,0.20778124999999997,0.244
6,5,9,0,5,25.07099999999998,17,102,24,48,49,37,39.16199999999997,0.061,0.488,0.5489999999999999,20,1,2,4,160,1,2,4,5,0,20,5,6,L,0.24476249999999997,0.061,0.244,0.13724999999999998
6,5,10,0,4,19.519999999999985,20,94,108,97,98,12,19.763999999999985,3.476999999999997,1.7689999999999988,0.6099999999999999,20,9,3,3,95,14,4,3,2,0.5,18,3,6,L,0.2080421052631579,0.24835714285714283,0.4422499999999998,0.20333333333333334
7,1,1,0,4,27.876999999999978,20,130,103,33,100,22,30.011999999999976,2.9279999999999977,0.5489999999999999,6.282999999999995,20,9,4,13,137,14,5,21,2,0,15,3.75,6,L,0.2190656934306569,0.20914285714285713,0.1098,0.2991904761904762
7,1,2,0,5,25.25399999999998,15,103,3,47,46,39,34.769999999999975,0.183,0.366,0.122,20,2,2,1,137,2,2,1,5,0.5,36,5.25,6,L,0.25379562043795617,0.0915,0.183,0.122
7,2,3,0,2,37.81999999999997,19,158,51,49,6,55,38.30799999999997,0.244,4.391999999999997,3.2329999999999974,20,1,13,10,163,1,16,15,4,0.5,30,4.5,6,L,0.23501840490797543,0.244,0.27449999999999997,0.21553333333333333
7,2,4,0,4,17.750999999999987,19,82,108,104,48,101,20.922999999999984,2.561999999999998,12.56599999999999,0.6099999999999999,20,6,16,2,96,7,52,2,2,0.5,17,2.75,6,L,0.21794791666666666,0.366,0.24165384615384614,0.30499999999999994
7,3,5,0,7,26.53499999999998,19,127,22,14,13,35,27.571999999999978,2.683999999999998,5.489999999999996,7.807999999999994,20,11,15,16,129,14,21,36,6,0.5,41,5.75,6,L,0.2137364341085271,0.1917142857142857,0.2614285714285714,0.21688888888888885
7,3,6,0,9,12.01699999999999,16,66,66,65,70,40,12.74899999999999,0.6709999999999998,1.2809999999999993,20.312999999999985,18,4,6,17,68,5,7,83,4,0.5,29,4.25,6,L,0.18748529411764706,0.13419999999999999,0.183,0.24473493975903612
7,4,7,0,5,35.562999999999974,18,170,39,44,38,10,35.867999999999974,0.6099999999999999,8.661999999999994,0.8539999999999996,20,5,15,4,172,5,35,4,5,0.5,36,5.25,6,L,0.2085348837209302,0.122,0.24748571428571425,0.2135
7,4,8,0,4,41.05299999999997,19,190,102,107,91,99,41.17499999999997,0.7319999999999998,0.9149999999999996,2.2569999999999983,20,4,2,5,192,4,2,6,2,0.5,15,2.25,6,L,0.21445312499999997,0.183,0.45749999999999985,0.37616666666666654
7,5,9,0,8,23.85099999999998,18,107,119,109,116,46,26.53499999999998,0.427,2.3179999999999983,1.8909999999999987,20,2,7,6,121,2,8,9,2,0.5,17,2.75,6,L,0.21929752066115699,0.2135,0.28975,0.21011111111111108
7,5,10,0,4,26.10799999999998,17,127,98,103,100,95,26.16899999999998,5.245999999999996,0.427,6.709999999999995,18,14,2,13,128,33,2,26,2,0.5,15,2.25,6,L,0.20444531249999998,0.15896969696969696,0.2135,0.25807692307692304
8,1,1,0,7,13.23699999999999,17,66,13,16,19,64,21.227999999999984,0.427,0.488,3.476999999999997,20,4,3,12,96,4,3,16,6,0.5,40,5.5,6,L,0.221125,0.10675,0.16266666666666665,0.21731249999999996
8,1,2,0,10,17.384999999999987,19,86,88,95,91,26,18.909999999999986,0.061,0.9759999999999995,12.01699999999999,20,1,6,16,96,1,6,44,3,0.5,23,3.5,6,L,0.19697916666666665,0.061,0.16266666666666665,0.27311363636363634
8,2,3,0,1,21.837999999999983,16,104,74,28,80,81,21.898999999999983,3.0499999999999976,0.427,0.488,17,10,3,3,105,11,4,3,3,0.5,23,3.5,6,L,0.20856190476190475,0.2772727272727272,0.10675,0.16266666666666665
8,2,4,0,7,19.458999999999985,16,97,13,24,18,21,19.519999999999985,4.635999999999997,0.9759999999999995,2.622999999999998,17,13,4,8,98,19,5,11,6,1,72,6,6,L,0.19918367346938773,0.24399999999999997,0.19519999999999998,0.23845454545454545
8,3,5,0,1,25.55899999999998,15,123,73,39,12,81,27.449999999999978,6.770999999999995,9.576999999999993,0.305,20,15,17,1,130,28,44,1,3,0,17,4.25,6,L,0.21115384615384614,0.24182142857142855,0.21765909090909089,0.305
8,3,6,0,7,12.87099999999999,15,66,16,22,31,18,13.35899999999999,3.1109999999999975,7.624999999999994,0.366,17,10,11,2,68,14,19,2,6,0.5,41,5.75,6,L,0.19645588235294117,0.2222142857142857,0.4013157894736841,0.183
8,4,7,0,8,26.10799999999998,18,127,119,112,120,5,26.41299999999998,0.122,0.6099999999999999,7.624999999999994,20,1,3,15,130,1,3,29,2,0.5,18,3,6,L,0.20317692307692306,0.122,0.20333333333333334,0.26293103448275856
8,4,8,0,5,22.203999999999983,19,113,48,38,44,62,25.92499999999998,5.245999999999996,5.428999999999996,7.136999999999994,20,9,11,15,134,18,20,28,5,0.5,34,4.75,6,L,0.19347014925373135,0.29144444444444434,0.27144999999999997,0.25489285714285714
8,5,9,0,6,23.60699999999998,18,104,3,67,2,11,33.061999999999976,5.977999999999995,1.7079999999999989,0.7929999999999997,20,15,10,4,142,26,11,4,6,0.5,40,5.5,6,L,0.23283098591549295,0.22992307692307692,0.15527272727272726,0.19824999999999998
8,5,10,0,8,21.776999999999983,20,113,116,120,111,54,23.179999999999982,0.244,0.061,8.844999999999994,20,3,1,14,118,3,1,33,2,0.5,16,2.5,6,L,0.19644067796610168,0.08133333333333333,0.061,0.268030303030303
9,1,1,0,7,15.676999999999987,19,82,22,18,21,90,16.10399999999999,1.0369999999999995,18.726999999999986,0.9759999999999995,20,3,17,3,86,3,73,3,6,0.5,39,5.25,6,L,0.18725581395348836,0.3456666666666666,0.2565342465753424,0.3253333333333333
9,1,2,0,2,20.007999999999985,19,98,52,59,51,82,23.85099999999998,0.8539999999999996,10.857999999999992,0.5489999999999999,20,3,17,3,111,3,44,3,4,0.5,27,3.75,6,L,0.21487387387387386,0.2846666666666666,0.24677272727272723,0.183
9,2,3,0,9,23.179999999999982,18,125,71,69,28,62,25.43699999999998,5.855999999999995,1.2199999999999993,0.183,20,15,5,2,137,24,5,2,4,0.5,29,4.25,6,L,0.1856715328467153,0.24399999999999997,0.244,0.0915
9,2,4,0,2,11.71199999999999,17,56,16,54,18,94,34.952999999999975,0.183,0.122,1.2199999999999993,20,1,1,3,163,1,1,3,4,0,19,4.75,6,L,0.21443558282208589,0.183,0.122,0.4066666666666665
9,3,5,0,7,9.942999999999993,16,50,23,20,18,21,15.31099999999999,2.0129999999999986,0.5489999999999999,4.574999999999997,20,6,3,12,66,10,3,18,6,1,72,6,6,L,0.23198484848484846,0.20129999999999998,0.183,0.2541666666666666
9,3,6,0,6,18.787999999999986,19,105,1,2,3,33,23.179999999999982,0.061,5.245999999999996,0.9759999999999995,20,1,13,2,120,1,23,3,6,0.5,41,5.75,6,L,0.19316666666666665,0.061,0.2280869565217391,0.32533333333333325
9,4,7,0,4,15.737999999999987,20,78,100,99,102,97,16.652999999999988,1.646999999999999,2.2569999999999983,0.122,20,5,7,1,83,7,9,1,2,1,24,2,6,L,0.20063855421686747,0.23528571428571426,0.25077777777777777,0.122
9,4,8,0,7,30.621999999999975,14,128,19,20,71,41,30.682999999999975,2.3789999999999982,1.0369999999999995,12.68799999999999,15,8,1,15,129,12,1,45,6,0,21,5.25,6,L,0.23785271317829454,0.19824999999999998,1.0369999999999995,0.2819555555555555
9,5,9,0,7,16.28699999999999,17,75,14,23,36,57,16.34799999999999,7.014999999999994,15.615999999999987,1.463999999999999,18,12,16,3,76,26,71,3,6,0,21,5.25,6,L,0.21510526315789472,0.2698076923076923,0.21994366197183096,0.4879999999999999
9,5,10,0,9,52.58199999999996,14,224,67,45,65,5,54.594999999999956,4.208999999999997,0.122,0.9759999999999995,20,10,1,3,235,16,1,4,4,0,19,4.75,6,L,0.2323191489361702,0.2630625,0.122,0.244
10,1,1,0,4,28.120999999999977,20,119,99,98,107,102,29.279999999999976,0.8539999999999996,0.5489999999999999,1.3419999999999992,20,3,2,5,124,4,2,6,2,1,24,2,6,L,0.2361290322580645,0.2135,0.27449999999999997,0.22366666666666665
10,1,2,0,10,27.205999999999978,19,111,85,92,86,87,28.425999999999977,0.122,0.488,1.7689999999999988,20,1,2,9,119,1,2,12,3,1,36,3,6,L,0.2388739495798319,0.122,0.244,0.14741666666666667
10,2,3,0,10,21.166999999999984,16,101,94,87,3,4,22.935999999999982,0.427,5.916999999999995,3.1109999999999975,20,2,15,9,110,3,26,13,3,0,18,4.5,6,L,0.2085090909090909,0.14233333333333334,0.22757692307692307,0.23930769230769228
10,2,4,0,9,16.28699999999999,20,73,71,66,67,72,18.665999999999986,0.061,1.7079999999999989,1.8299999999999987,20,1,7,7,81,1,9,7,4,1,48,4,6,L,0.23044444444444442,0.061,0.18977777777777777,0.2614285714285714
10,3,5,0,8,13.846999999999989,18,57,117,109,119,12,14.395999999999988,0.6709999999999998,0.7319999999999998,5.855999999999995,20,4,3,11,60,4,3,20,2,0.5,18,3,6,L,0.2399333333333333,0.16775,0.244,0.29279999999999995
10,3,6,0,9,48.25099999999996,14,210,68,15,16,61,48.49499999999996,8.661999999999994,0.8539999999999996,0.122,16,16,4,1,212,28,4,1,4,0,20,5,6,L,0.22874999999999998,0.30935714285714283,0.2135,0.122
10,4,7,0,2,32.69599999999998,18,143,56,60,50,7,35.745999999999974,1.8909999999999987,2.3179999999999983,3.476999999999997,20,7,9,12,153,9,13,22,4,0.5,30,4.5,6,L,0.23363398692810455,0.21011111111111108,0.1783076923076923,0.15804545454545454
10,4,8,0,9,23.66799999999998,20,120,67,72,70,17,26.04699999999998,0.244,4.391999999999997,0.305,20,1,7,2,128,1,13,2,4,0.5,30,4.5,6,L,0.20349218749999998,0.244,0.3378461538461538,0.1525
10,5,9,0,5,33.366999999999976,19,158,39,46,37,41,34.342999999999975,1.7079999999999989,0.183,4.879999999999996,20,4,1,11,163,5,1,19,5,1,60,5,6,L,0.21069325153374233,0.34159999999999996,0.183,0.25684210526315787
10,5,10,0,8,33.732999999999976,15,143,1,115,114,6,58.25499999999995,0.183,0.061,2.0129999999999986,20,1,1,8,243,1,1,8,2,0,16,4,6,L,0.23973251028806583,0.183,0.061,0.251625
11,1,1,0,8,17.079999999999988,19,81,115,114,68,113,19.214999999999986,0.183,6.404999999999995,2.9279999999999977,20,1,13,8,90,1,29,12,2,0.5,16,2.5,6,L,0.2135,0.183,0.22086206896551722,0.24399999999999997
11,1,2,0,10,35.257999999999974,20,145,89,90,93,87,35.379999999999974,0.7929999999999997,0.9759999999999995,0.183,20,2,5,2,146,3,6,2,3,1,36,3,6,L,0.24232876712328766,0.2643333333333333,0.16266666666666665,0.0915
11,2,3,0,2,18.970999999999986,19,89,56,51,90,87,19.519999999999985,1.3419999999999992,8.356999999999994,4.269999999999997,20,6,17,11,92,6,39,15,4,0,14,3.5,6,L,0.21217391304347824,0.22366666666666665,0.21428205128205127,0.2846666666666666
11,2,4,0,1,16.774999999999988,19,88,75,83,84,17,18.360999999999986,5.306999999999996,0.061,0.9149999999999996,20,12,1,5,94,22,1,5,3,0.5,24,3.75,6,L,0.19532978723404254,0.2412272727272727,0.061,0.183
11,3,5,0,7,21.410999999999984,20,106,13,54,16,43,33.854999999999976,0.7929999999999997,2.8669999999999978,0.366,20,4,13,4,156,4,19,4,6,0,21,5.25,6,L,0.21701923076923074,0.19824999999999998,0.15089473684210525,0.0915
11,3,6,0,9,38.85699999999997,20,182,70,67,61,8,38.97899999999997,0.366,1.7079999999999989,3.842999999999997,20,1,7,12,183,2,8,19,4,0.5,30,4.5,6,L,0.213,0.183,0.2135,0.2022631578947368
11,4,7,0,8,20.251999999999985,20,109,117,113,114,24,21.288999999999984,2.561999999999998,1.7079999999999989,19.702999999999985,20,9,9,17,116,14,9,67,2,0.5,18,3,6,L,0.1835258620689655,0.183,0.18977777777777777,0.2940746268656716
11,4,8,0,3,18.055999999999987,18,93,30,25,32,12,19.214999999999986,0.488,0.244,7.319999999999994,20,2,3,14,101,2,3,34,5,0.5,36,5.25,6,L,0.19024752475247525,0.244,0.08133333333333333,0.2152941176470588
11,5,9,0,9,17.750999999999987,18,80,88,71,24,23,21.105999999999984,0.122,12.62699999999999,4.025999999999997,20,1,18,11,92,1,53,20,4,0,19,4.75,6,L,0.22941304347826086,0.122,0.23824528301886788,0.20129999999999998
11,5,10,0,5,26.47399999999998,16,129,40,48,54,6,28.852999999999977,1.1589999999999994,7.441999999999994,2.1959999999999984,20,6,15,9,137,6,31,11,5,0,20,5,6,L,0.21060583941605837,0.19316666666666665,0.24006451612903223,0.1996363636363636
12,1,1,0,1,30.072999999999976,20,151,81,84,13,47,33.366999999999976,0.183,16.957999999999988,0.061,20,1,18,1,170,1,78,1,3,0,17,4.25,6,L,0.19627647058823527,0.183,0.2174102564102564,0.061
12,1,2,0,2,43.61499999999997,16,193,60,50,59,4,44.041999999999966,2.0739999999999985,0.9149999999999996,4.513999999999997,19,10,3,12,197,13,5,17,4,0.5,30,4.5,6,L,0.2235634517766497,0.15953846153846155,0.183,0.26552941176470585
12,2,3,0,3,33.488999999999976,20,150,26,32,18,99,35.318999999999974,2.1349999999999985,7.014999999999994,1.4029999999999991,20,8,16,5,161,8,32,5,5,0,18,4.5,6,L,0.2193726708074534,0.266875,0.21921875,0.2806
12,2,4,0,6,20.129999999999985,19,94,3,55,82,50,24.21699999999998,9.088999999999993,4.6969999999999965,0.7319999999999998,20,14,16,3,111,29,27,4,6,0,17,4.25,6,L,0.21817117117117116,0.31341379310344825,0.17396296296296296,0.183
12,3,5,0,1,28.242999999999977,15,125,75,74,9,79,29.584999999999976,2.561999999999998,9.576999999999993,0.5489999999999999,20,10,16,3,131,11,35,4,3,0.5,24,3.75,6,L,0.22583969465648854,0.2329090909090909,0.2736285714285714,0.13724999999999998
12,3,6,0,7,46.90899999999996,13,215,17,19,106,15,49.65399999999996,0.5489999999999999,1.646999999999999,4.452999999999997,19,4,5,10,225,4,7,15,6,0.5,38,5,6,L,0.22068444444444443,0.13724999999999998,0.23528571428571426,0.29686666666666656
12,4,7,0,3,11.162999999999991,15,61,31,26,34,36,11.345999999999991,1.646999999999999,7.624999999999994,3.903999999999997,17,8,14,10,63,8,28,20,5,1,60,5,6,L,0.18009523809523809,0.205875,0.27232142857142855,0.19519999999999998
12,4,8,0,2,27.815999999999978,15,122,56,58,54,57,28.791999999999977,0.061,1.9519999999999986,3.2329999999999974,19,1,3,8,126,1,6,13,4,1,48,4,6,L,0.2285079365079365,0.061,0.32533333333333325,0.24869230769230766
12,5,9,0,6,21.410999999999984,18,100,3,45,39,51,23.60699999999998,8.051999999999994,7.075999999999994,0.488,20,16,16,2,104,31,26,2,6,0,20,5,6,L,0.2269903846153846,0.2597419354838709,0.27215384615384614,0.244
12,5,10,0,3,17.079999999999988,19,94,26,21,83,22,18.238999999999987,9.515999999999993,4.452999999999997,1.9519999999999986,20,16,11,9,96,35,19,11,5,0,20,5,6,L,0.18998958333333332,0.27188571428571423,0.23436842105263156,0.17745454545454545
13,1,1,0,8,16.896999999999988,20,88,113,119,64,112,17.384999999999987,0.9759999999999995,3.842999999999997,0.122,20,5,7,1,90,5,13,1,2,0.5,16,2.5,6,L,0.19316666666666665,0.19519999999999998,0.2956153846153846,0.122
13,1,2,0,2,11.589999999999991,18,54,53,60,52,89,21.288999999999984,0.8539999999999996,7.197999999999994,7.746999999999994,20,5,14,12,96,5,27,28,4,0.5,27,3.75,6,L,0.22176041666666665,0.1708,0.26659259259259255,0.2766785714285714
13,2,3,0,2,16.896999999999988,19,93,49,55,20,57,27.63299999999998,2.500999999999998,5.611999999999996,0.5489999999999999,20,11,13,2,130,13,22,2,4,0.5,30,4.5,6,L,0.21256153846153844,0.19238461538461538,0.25509090909090903,0.27449999999999997
13,2,4,0,5,14.761999999999988,18,76,1,61,73,11,35.989999999999974,3.1719999999999975,1.2199999999999993,1.3419999999999992,20,14,6,7,182,19,7,7,5,0,19,4.75,6,L,0.19774725274725274,0.16694736842105262,0.1742857142857143,0.1917142857142857
13,3,5,0,2,18.543999999999986,17,80,16,20,96,28,56.85199999999996,1.2199999999999993,0.061,0.244,20,4,1,2,242,5,1,2,4,0,20,5,6,L,0.23492561983471072,0.24399999999999997,0.061,0.122
13,3,6,0,1,30.133999999999975,17,145,82,83,74,84,30.499999999999975,0.9149999999999996,0.244,1.2199999999999993,20,5,1,5,148,5,1,5,3,1,36,3,6,L,0.20608108108108106,0.183,0.244,0.244
13,4,7,0,9,25.49799999999998,19,134,66,30,23,64,29.340999999999976,12.74899999999999,2.561999999999998,0.7929999999999997,20,18,10,8,142,60,13,8,4,0,19,4.75,6,L,0.20662676056338025,0.2124833333333333,0.19707692307692307,0.09912499999999999
13,4,8,0,2,24.46099999999998,18,108,57,56,59,53,24.52199999999998,1.0979999999999994,0.7319999999999998,1.7689999999999988,19,6,4,8,109,6,4,9,4,1,48,4,6,L,0.22497247706422016,0.183,0.183,0.19655555555555554
13,5,9,0,8,12.13899999999999,19,64,117,46,114,113,16.896999999999988,22.325999999999983,3.903999999999997,0.9759999999999995,20,19,12,4,83,104,13,4,2,0.5,17,2.75,6,L,0.20357831325301204,0.2146730769230769,0.3003076923076922,0.244
13,5,10,0,4,30.377999999999975,20,152,108,103,94,100,30.804999999999975,1.0369999999999995,1.585999999999999,0.6099999999999999,20,4,9,3,156,5,10,5,2,0.5,15,2.25,6,L,0.1974679487179487,0.2074,0.1586,0.122
14,1,1,0,8,25.74199999999998,18,124,114,112,117,119,25.92499999999998,1.524999999999999,1.2809999999999993,0.305,19,8,9,3,125,9,11,3,2,1,24,2,5,L,0.20739999999999997,0.16944444444444445,0.11645454545454545,0.10166666666666667
14,1,2,0,2,37.81999999999997,20,175,55,54,53,52,38.79599999999997,0.488,0.7319999999999998,3.1719999999999975,20,4,4,8,179,4,4,9,4,1,48,4,5,L,0.21673743016759775,0.122,0.183,0.3524444444444444
14,2,3,0,7,20.556999999999984,14,87,16,14,18,65,21.166999999999984,3.1719999999999975,0.061,7.380999999999994,19,12,1,17,92,12,1,40,6,0.5,40,5.5,5,L,0.23007608695652174,0.2643333333333333,0.061,0.184525
14,2,4,0,8,21.166999999999984,20,96,84,116,111,115,50.08099999999996,1.0979999999999994,2.744999999999998,1.585999999999999,20,3,8,4,217,3,11,5,2,0.5,15,2.25,5,L,0.2307880184331797,0.3659999999999999,0.24954545454545451,0.3171999999999999
14,3,5,0,3,33.305999999999976,20,155,77,33,25,27,35.257999999999974,1.7689999999999988,0.366,1.0369999999999995,20,6,1,3,159,7,2,3,5,0.5,33,4.5,5,L,0.22174842767295597,0.25271428571428567,0.183,0.3456666666666667
14,3,6,0,6,9.027999999999993,16,38,7,1,2,6,10.064999999999992,1.2809999999999993,2.622999999999998,3.537999999999997,20,3,7,11,42,3,10,12,6,1,72,6,5,L,0.23964285714285713,0.42699999999999994,0.2623,0.2948333333333333
14,4,7,0,3,25.07099999999998,18,106,71,107,79,101,43.06599999999997,2.561999999999998,1.1589999999999994,32.45199999999998,20,2,2,17,176,4,2,126,5,0,11,2.75,5,L,0.24469318181818178,0.6404999999999997,0.5794999999999999,0.25755555555555554
14,4,8,0,10,44.041999999999966,16,193,21,38,52,45,76.73799999999994,7.502999999999994,0.305,0.122,20,16,1,1,314,22,1,1,3,0,20,5,5,L,0.2443885350318471,0.3410454545454545,0.305,0.122
15,1,1,0,5,19.397999999999985,20,80,45,38,48,70,20.068999999999985,0.244,3.4159999999999973,4.574999999999997,20,3,8,11,82,3,10,19,5,0.5,34,4.75,6,L,0.24474390243902436,0.08133333333333333,0.3415999999999999,0.24078947368421053
15,1,2,0,4,19.458999999999985,19,89,107,100,103,98,19.580999999999985,0.8539999999999996,2.0129999999999986,1.0979999999999994,20,5,7,4,90,6,9,4,2,1,24,2,6,L,0.21756666666666666,0.14233333333333334,0.22366666666666662,0.27449999999999997
15,2,3,0,10,40.13799999999997,18,179,89,85,112,23,40.80899999999997,6.709999999999995,0.6709999999999998,2.1349999999999985,20,11,1,8,185,25,1,10,3,0,14,3.5,6,L,0.22058918918918918,0.26839999999999997,0.6709999999999998,0.2135
15,2,4,0,9,32.51299999999998,20,137,61,68,80,31,33.122999999999976,2.683999999999998,4.818999999999996,3.3549999999999973,20,6,11,10,142,11,20,14,4,0,16,4,6,L,0.23326056338028167,0.24399999999999997,0.24095,0.2396428571428571
15,3,5,0,8,35.989999999999974,14,163,112,119,118,77,36.05099999999997,2.0739999999999985,0.122,2.1959999999999984,15,11,1,8,164,12,1,10,2,0.5,15,2.25,6,L,0.2198231707317073,0.17283333333333334,0.122,0.21959999999999996
15,3,6,0,10,9.637999999999993,17,34,48,1,87,64,33.549999999999976,30.255999999999975,0.6709999999999998,0.061,20,19,2,1,114,115,2,1,3,0,18,4.5,6,L,0.29429824561403506,0.263095652173913,0.3354999999999999,0.061
15,4,7,0,9,25.86399999999998,19,134,68,119,67,61,26.47399999999998,4.330999999999997,4.574999999999997,1.3419999999999992,20,14,12,3,135,24,21,4,4,0.5,26,3.5,6,L,0.1961037037037037,0.18045833333333333,0.21785714285714283,0.3355
15,4,8,0,2,15.493999999999987,19,74,54,50,57,5,16.04299999999999,2.805999999999998,0.6099999999999999,0.5489999999999999,20,8,3,3,75,12,3,3,4,0.5,30,4.5,6,L,0.21390666666666666,0.23383333333333334,0.20333333333333334,0.183
15,5,9,0,7,13.785999999999989,19,77,16,14,70,19,20.251999999999985,2.1959999999999984,0.7319999999999998,1.0979999999999994,20,8,4,6,102,9,5,6,6,0.5,40,5.5,6,L,0.19854901960784313,0.244,0.1464,0.183
15,5,10,0,6,49.95899999999996,19,215,6,11,10,44,50.01999999999996,1.0369999999999995,8.051999999999994,1.2809999999999993,20,4,15,4,216,6,33,4,6,0.5,41,5.75,6,L,0.23157407407407404,0.17283333333333334,0.24399999999999997,0.32025
16,1,1,0,4,18.421999999999986,19,83,103,100,97,108,19.092999999999986,0.9149999999999996,0.305,2.9889999999999977,20,7,2,9,86,7,3,11,2,1,24,2,6,L,0.22201162790697673,0.1307142857142857,0.10166666666666667,0.2717272727272727
16,1,2,0,1,13.907999999999989,17,62,77,79,1,75,16.16499999999999,2.1349999999999985,4.086999999999997,0.061,20,8,12,1,70,9,17,1,3,0.5,24,3.75,6,L,0.2309285714285714,0.2372222222222222,0.24041176470588232,0.061
16,2,3,0,2,45.322999999999965,17,190,55,21,96,51,45.627999999999965,3.476999999999997,2.3789999999999982,0.305,20,13,8,2,193,20,9,2,4,0,17,4.25,6,L,0.2364145077720207,0.17385,0.26433333333333325,0.1525
16,2,4,0,9,57.217999999999954,17,259,64,67,72,11,59.35299999999995,1.2809999999999993,3.842999999999997,0.488,20,3,10,2,272,3,15,3,4,0.5,30,4.5,6,L,0.21820955882352938,0.42699999999999994,0.2562,0.16266666666666665
16,3,5,0,1,46.78699999999996,15,211,74,82,84,78,47.09199999999996,0.5489999999999999,1.646999999999999,4.6969999999999965,16,4,8,14,212,6,10,21,3,1,36,3,6,L,0.2221320754716981,0.0915,0.16469999999999999,0.22366666666666662
16,3,6,0,8,25.86399999999998,19,120,110,120,115,50,27.937999999999978,2.3179999999999983,1.7079999999999989,13.05399999999999,20,4,8,16,133,5,9,54,2,0.5,16,2.5,6,L,0.21006015037593984,0.4635999999999998,0.18977777777777777,0.24174074074074073
16,4,7,0,6,27.937999999999978,17,120,5,9,56,6,28.120999999999977,2.2569999999999983,2.2569999999999983,2.439999999999998,19,10,7,9,122,13,10,12,6,0.5,40,5.5,6,L,0.23049999999999998,0.17361538461538462,0.22569999999999996,0.2033333333333333
16,4,8,0,7,19.641999999999985,19,87,16,20,19,63,19.824999999999985,1.0369999999999995,13.23699999999999,0.244,20,5,16,1,89,5,44,1,6,0.5,40,5.5,6,L,0.222752808988764,0.20739999999999997,0.30084090909090905,0.244
16,5,9,0,9,26.96199999999998,16,131,33,25,64,65,38.36899999999997,6.221999999999995,0.427,1.3419999999999992,20,13,3,5,182,23,4,5,4,0,18,4.5,6,L,0.2108186813186813,0.27052173913043476,0.10675,0.26839999999999997
16,5,10,0,4,38.12499999999997,13,170,103,49,42,104,38.18599999999997,5.611999999999996,2.561999999999998,2.2569999999999983,14,13,9,8,171,16,13,10,2,0,13,3.25,6,L,0.22330994152046782,0.35074999999999995,0.19707692307692307,0.22569999999999998
17,1,1,0,5,22.142999999999983,18,101,45,46,16,17,23.179999999999982,0.8539999999999996,11.89499999999999,2.439999999999998,20,3,17,12,106,4,48,18,5,0,22,5.5,6,L,0.21867924528301885,0.2135,0.24781249999999996,0.13555555555555554
17,1,2,0,2,29.706999999999976,18,151,50,49,11,9,32.14699999999998,2.1959999999999984,1.8909999999999987,1.7689999999999988,20,9,8,6,164,10,10,8,4,0,20,5,6,L,0.1960182926829268,0.2196,0.1891,0.221125
17,2,3,0,2,27.998999999999977,16,115,57,53,59,50,28.486999999999977,1.7689999999999988,1.8299999999999987,0.427,20,7,5,2,119,9,8,2,4,1,48,4,6,L,0.2393865546218487,0.19655555555555554,0.22875,0.2135
17,2,4,0,3,23.60699999999998,20,109,35,5,29,26,26.59599999999998,3.781999999999997,0.5489999999999999,0.305,20,11,2,2,124,18,3,2,5,0.5,36,5.25,6,L,0.21448387096774194,0.2101111111111111,0.183,0.1525
17,3,5,0,1,52.64299999999996,17,242,77,83,20,76,52.70399999999996,0.183,12.93199999999999,0.6099999999999999,18,3,17,5,243,3,53,5,3,0.5,24,3.75,6,L,0.21688888888888888,0.061,0.24399999999999997,0.122
17,3,6,0,6,17.140999999999988,20,83,33,3,6,9,26.839999999999982,4.147999999999997,0.427,0.061,20,11,2,1,124,14,2,1,6,0.5,41,5.75,6,L,0.2164516129032258,0.29628571428571426,0.2135,0.061
17,4,7,0,2,29.706999999999976,20,133,96,59,22,53,41.84599999999997,1.9519999999999986,5.489999999999996,0.122,20,8,15,1,194,9,21,1,4,0,17,4.25,6,L,0.21570103092783505,0.21688888888888888,0.2614285714285714,0.122
17,4,8,0,3,23.118999999999982,20,107,34,27,11,79,24.27799999999998,0.6099999999999999,8.844999999999994,5.306999999999996,20,3,14,12,113,4,41,21,5,0,19,4.75,6,L,0.21484955752212387,0.1525,0.21573170731707317,0.2527142857142857
17,5,9,0,3,26.53499999999998,20,108,31,28,82,70,29.340999999999976,0.061,5.123999999999996,5.7339999999999955,20,1,11,13,126,1,19,23,5,0,17,4.25,6,L,0.23286507936507936,0.061,0.26968421052631575,0.2493043478260869
17,5,10,0,5,13.17599999999999,18,65,47,42,4,2,14.822999999999988,4.391999999999997,10.918999999999992,8.234999999999994,20,10,16,16,72,22,46,37,5,0,22,5.5,6,L,0.205875,0.1996363636363636,0.23736956521739128,0.22256756756756754
18,1,1,0,3,29.950999999999976,18,128,31,25,34,20,30.072999999999976,1.3419999999999992,1.2199999999999993,10.735999999999992,20,6,5,16,130,6,5,43,5,0.5,36,5.25,6,L,0.2313307692307692,0.22366666666666665,0.24399999999999997,0.24967441860465112
18,1,2,0,4,21.044999999999984,19,87,98,100,54,77,22.386999999999983,0.5489999999999999,7.746999999999994,11.284999999999991,20,2,15,15,95,2,33,45,2,0,11,2.75,6,L,0.23565263157894734,0.27449999999999997,0.23475757575757575,0.25077777777777777
18,2,3,0,3,31.902999999999974,18,135,26,12,27,55,35.562999999999974,5.245999999999996,5.7339999999999955,0.305,20,13,15,2,154,22,27,2,5,0,20,5,6,L,0.2309285714285714,0.23845454545454545,0.21237037037037038,0.1525
18,2,4,0,7,17.079999999999988,19,76,18,14,16,17,21.410999999999984,0.366,2.500999999999998,5.245999999999996,20,1,8,8,98,1,12,16,6,1,72,6,6,L,0.21847959183673468,0.366,0.20841666666666664,0.3278749999999999
18,3,5,0,4,18.116999999999987,20,91,104,102,99,4,22.203999999999983,0.122,2.622999999999998,2.744999999999998,20,1,12,6,113,1,15,6,2,0.5,18,3,6,L,0.19649557522123892,0.122,0.17486666666666667,0.45749999999999985
18,3,6,0,9,10.613999999999992,10,48,67,70,69,63,10.979999999999992,2.500999999999998,0.9759999999999995,0.061,11,7,4,1,50,10,4,1,4,1,48,4,6,L,0.2196,0.2501,0.24399999999999997,0.061
18,4,7,0,2,31.536999999999974,15,156,5,4,49,7,43.797999999999966,5.611999999999996,0.061,0.9759999999999995,20,15,1,3,206,27,1,3,4,0.5,40,5.5,6,L,0.21261165048543687,0.20785185185185184,0.061,0.3253333333333333
18,4,8,0,10,16.957999999999988,19,84,15,14,69,95,47.76299999999996,17.628999999999987,0.9149999999999996,0.6709999999999998,20,19,4,5,205,69,4,5,3,0,19,4.75,6,L,0.232990243902439,0.25549275362318835,0.22875,0.13419999999999999
18,5,9,0,10,42.88299999999997,18,186,3,7,96,85,49.53199999999996,7.441999999999994,0.061,1.2199999999999993,20,18,1,5,220,36,1,6,3,0,18,4.5,6,L,0.2251454545454545,0.2067222222222222,0.061,0.20333333333333334
18,5,10,0,1,14.212999999999989,19,79,82,76,79,74,16.40899999999999,0.122,0.061,5.184999999999996,20,1,1,13,86,1,1,22,3,1,36,3,6,L,0.19080232558139534,0.122,0.061,0.23568181818181816
19,1,1,0,10,26.35199999999998,19,112,96,35,91,86,27.876999999999978,11.528999999999991,0.183,0.8539999999999996,20,16,2,5,122,52,2,5,3,0.5,23,3.5,6,L,0.22849999999999998,0.22171153846153846,0.0915,0.1708
19,1,2,0,9,33.793999999999976,20,143,69,66,61,43,34.220999999999975,2.9279999999999977,0.488,3.0499999999999976,20,10,2,8,145,17,2,13,4,0.5,29,4.25,6,L,0.2360068965517241,0.17223529411764704,0.244,0.23461538461538461
19,2,3,0,8,13.41999999999999,19,71,114,112,40,49,14.456999999999988,3.2939999999999974,2.9889999999999977,6.648999999999995,20,11,11,14,78,15,17,30,2,0,13,3.25,6,L,0.18534615384615383,0.2196,0.17582352941176468,0.2216333333333333
19,2,4,0,4,16.10399999999999,16,65,4,34,97,79,44.956999999999965,0.061,0.061,0.7319999999999998,20,1,1,4,181,1,1,5,2,0,16,4,6,L,0.24838121546961323,0.061,0.061,0.1464
19,3,5,0,8,39.71099999999997,18,152,73,4,116,35,42.88299999999997,9.576999999999993,0.488,3.2939999999999974,20,18,4,11,164,49,4,16,2,0,16,4,6,L,0.26148170731707315,0.1954489795918367,0.122,0.205875
19,3,6,0,10,20.678999999999984,20,95,88,89,107,13,22.569999999999983,2.2569999999999983,12.68799999999999,10.491999999999992,20,4,16,16,101,4,45,48,3,0,14,3.5,6,L,0.22346534653465344,0.5642499999999998,0.2819555555555555,0.2185833333333333
19,4,7,0,4,22.325999999999983,20,104,107,104,63,103,25.43699999999998,5.916999999999995,3.9649999999999967,0.244,20,13,14,2,115,22,20,2,2,0.5,16,2.5,6,L,0.22119130434782608,0.2689545454545454,0.19824999999999998,0.122
19,4,8,0,5,17.323999999999987,17,87,43,37,21,13,19.031999999999986,1.7689999999999988,12.01699999999999,10.247999999999992,20,3,16,15,91,3,51,32,5,0,22,5.5,6,L,0.20914285714285713,0.5896666666666665,0.23562745098039214,0.3202499999999999
19,5,9,0,2,28.181999999999977,19,113,53,55,52,9,28.547999999999977,1.8909999999999987,2.2569999999999983,3.1109999999999975,20,8,10,9,116,9,12,15,4,0.5,30,4.5,6,L,0.24610344827586206,0.2101111111111111,0.18808333333333332,0.20739999999999997
19,5,10,0,9,24.58299999999998,20,113,69,72,68,66,25.55899999999998,1.2199999999999993,2.0739999999999985,1.4029999999999991,20,4,7,4,118,4,7,6,4,1,48,4,6,L,0.21660169491525422,0.30499999999999994,0.29628571428571426,0.23383333333333334
20,1,1,0,7,19.763999999999985,19,102,20,18,23,67,21.471999999999984,6.587999999999995,2.1959999999999984,1.2809999999999993,20,15,10,7,109,36,10,8,6,0.5,40,5.5,6,L,0.19699082568807338,0.183,0.2196,0.160125
20,1,2,0,10,18.665999999999986,19,93,94,1,95,2,20.739999999999984,8.478999999999994,3.0499999999999976,4.940999999999996,20,14,10,12,104,27,16,17,3,0,18,4.5,6,L,0.1994230769230769,0.31403703703703695,0.190625,0.29064705882352937
20,2,3,0,10,26.83999999999998,20,129,92,91,85,54,28.608999999999977,1.4029999999999991,0.061,3.659999999999997,20,7,1,9,135,8,1,18,3,0.5,22,3.25,6,L,0.2119185185185185,0.175375,0.061,0.2033333333333333
20,2,4,0,9,15.554999999999987,20,77,72,61,21,66,16.16499999999999,5.062999999999996,1.4029999999999991,0.7319999999999998,20,17,7,4,80,29,9,4,4,0.5,30,4.5,6,L,0.20206249999999998,0.17458620689655172,0.15588888888888888,0.183
20,3,5,0,3,22.508999999999983,15,100,35,33,26,2,25.31499999999998,0.366,1.0369999999999995,9.393999999999993,20,4,5,16,111,4,6,33,5,0.5,36,5.25,6,L,0.22806306306306304,0.0915,0.17283333333333334,0.2846666666666666
20,3,6,0,2,28.242999999999977,19,110,55,52,51,58,28.730999999999977,0.183,1.585999999999999,12.44399999999999,20,2,5,17,113,2,6,54,4,1,48,4,6,L,0.25425663716814156,0.0915,0.2643333333333333,0.23044444444444442
20,4,7,0,6,36.78299999999997,14,149,6,1,50,97,38.24699999999997,5.184999999999996,0.9149999999999996,7.685999999999994,19,13,3,14,155,22,3,35,6,0,18,4.5,6,L,0.2467548387096774,0.23568181818181816,0.305,0.2196
20,4,8,0,5,26.71799999999998,18,123,47,40,37,16,28.730999999999977,3.2329999999999974,0.366,13.05399999999999,20,10,3,15,131,16,3,36,5,0.5,36,5.25,6,L,0.21932061068702288,0.20206249999999998,0.122,0.362611111111111
20,5,9,0,1,30.377999999999975,18,146,76,73,83,46,30.438999999999975,1.4029999999999991,5.916999999999995,6.709999999999995,19,5,12,15,147,7,21,28,3,0.5,23,3.5,6,L,0.20706802721088433,0.20042857142857143,0.2817619047619047,0.23964285714285713
20,5,10,0,3,12.80999999999999,16,53,36,106,32,13,16.04299999999999,6.160999999999995,5.062999999999996,3.3549999999999973,20,14,13,5,65,30,23,9,5,0,18,4.5,6,L,0.2468153846153846,0.20536666666666667,0.22013043478260869,0.3727777777777777
21,1,1,0,1,22.691999999999982,20,122,74,81,77,52,22.874999999999982,3.598999999999997,0.061,4.635999999999997,20,14,1,11,124,19,1,18,3,0.5,22,3.25,6,L,0.1844758064516129,0.1894210526315789,0.061,0.25755555555555554
21,1,2,0,8,15.432999999999987,18,75,112,115,72,110,22.691999999999982,0.6099999999999999,10.674999999999992,0.061,20,3,16,1,111,3,45,1,2,0.5,16,2.5,6,L,0.20443243243243242,0.20333333333333334,0.2372222222222222,0.061
21,2,3,0,9,36.84399999999997,19,154,67,66,70,69,39.77199999999997,0.7929999999999997,1.0979999999999994,0.183,20,5,4,1,169,5,4,1,4,1,48,4,6,L,0.23533727810650884,0.1586,0.27449999999999997,0.183
21,2,4,0,3,21.837999999999983,19,104,31,27,33,24,22.020999999999983,3.1109999999999975,4.6969999999999965,3.2939999999999974,20,10,12,8,105,14,16,11,5,0.5,36,5.25,6,L,0.2097238095238095,0.2222142857142857,0.2935624999999999,0.2994545454545454
21,3,5,0,9,15.737999999999987,18,68,64,72,114,21,19.458999999999985,1.2199999999999993,11.528999999999991,11.345999999999991,20,4,16,16,80,4,49,43,4,0,16,4,6,L,0.24323749999999997,0.3049999999999999,0.23528571428571426,0.26386046511627903
21,3,6,0,6,21.837999999999983,20,113,3,6,10,25,21.898999999999983,8.478999999999994,0.183,3.537999999999997,20,17,2,12,114,39,2,18,6,0.5,41,5.75,6,L,0.19209649122807015,0.21741025641025638,0.0915,0.19655555555555554
21,4,7,0,9,34.525999999999975,15,140,69,20,30,84,36.05099999999997,2.8669999999999978,6.953999999999994,0.488,20,11,16,2,146,12,33,2,4,0,18,4.5,6,L,0.24692465753424656,0.23891666666666664,0.2107272727272727,0.244
21,4,8,0,5,31.963999999999974,18,144,1,46,53,51,55.021999999999956,0.305,0.9759999999999995,0.366,20,2,5,4,235,2,5,4,5,0,19,4.75,6,L,0.23413617021276592,0.1525,0.19519999999999998,0.0915
21,5,9,0,7,27.632999999999978,15,133,15,17,30,83,27.693999999999978,2.9279999999999977,6.526999999999995,14.273999999999988,16,8,15,15,134,10,24,53,6,0,20,5,6,L,0.20667164179104477,0.29279999999999995,0.2719583333333333,0.2693207547169811
21,5,10,0,5,12.74899999999999,19,69,43,114,3,49,17.018999999999988,22.874999999999982,0.7929999999999997,6.770999999999995,20,19,5,15,89,102,5,33,5,0,17,4.25,6,L,0.1912247191011236,0.22426470588235292,0.1586,0.20518181818181816
22,1,1,0,10,20.129999999999985,17,81,91,94,85,71,20.434999999999985,1.0369999999999995,1.1589999999999994,3.781999999999997,19,3,4,12,83,4,4,22,3,0.5,22,3.25,6,L,0.2462048192771084,0.25925,0.28974999999999995,0.1719090909090909
22,1,2,0,5,44.529999999999966,19,193,39,44,53,52,48.18999999999996,4.513999999999997,5.184999999999996,0.488,20,11,14,1,208,23,24,1,5,0,18,4.5,6,L,0.23168269230769228,0.19626086956521738,0.21604166666666663,0.488
22,2,3,0,3,24.58299999999998,18,123,26,60,16,32,25.61999999999998,5.306999999999996,13.17599999999999,2.0129999999999986,20,12,16,5,126,25,49,6,5,0,20,5,6,L,0.2033333333333333,0.21228,0.26889795918367343,0.3354999999999999
22,2,4,0,6,10.674999999999992,18,46,6,11,9,12,18.299999999999986,0.183,0.183,2.1349999999999985,20,2,2,8,76,2,2,9,6,1,72,6,6,L,0.24078947368421053,0.0915,0.0915,0.2372222222222222
22,3,5,0,1,32.08599999999998,19,138,77,79,75,46,32.45199999999998,1.9519999999999986,5.977999999999995,1.7079999999999989,20,6,14,6,140,9,32,7,3,0.5,23,3.5,6,L,0.23179999999999998,0.21688888888888885,0.1868125,0.244
22,3,6,0,6,20.190999999999985,18,93,2,36,28,34,20.312999999999985,4.025999999999997,12.01699999999999,4.147999999999997,20,10,16,14,95,17,60,20,6,0.5,36,5.25,6,L,0.2138210526315789,0.2368235294117647,0.2002833333333333,0.20739999999999997
22,4,7,0,8,19.824999999999985,17,101,116,13,118,66,20.007999999999985,8.539999999999994,2.683999999999998,3.598999999999997,19,17,10,13,103,39,15,21,2,0,14,3.5,6,L,0.194252427184466,0.21897435897435896,0.17893333333333333,0.17138095238095238
22,4,8,0,1,17.567999999999987,19,76,56,6,2,81,31.780999999999977,15.127999999999988,9.393999999999993,2.3179999999999983,20,18,17,11,125,58,43,13,3,0,19,4.75,6,L,0.254248,0.2608275862068965,0.21846511627906973,0.1783076923076923
22,5,9,0,2,29.462999999999976,17,144,59,13,25,14,36.05099999999997,12.19999999999999,1.7079999999999989,0.7929999999999997,20,18,7,4,173,45,8,4,4,0,21,5.25,6,L,0.2083872832369942,0.2711111111111111,0.21349999999999997,0.19824999999999998
22,5,10,0,9,18.299999999999986,20,87,68,61,67,62,19.336999999999986,2.744999999999998,1.3419999999999992,2.561999999999998,20,8,4,8,96,15,5,10,4,1,48,4,6,L,0.2014270833333333,0.183,0.26839999999999997,0.25619999999999993
23,1,1,0,3,17.201999999999988,19,96,62,29,35,11,24.82699999999998,2.1959999999999984,0.122,1.4029999999999991,20,8,1,4,122,12,1,4,5,0,20,5,6,L,0.2035,0.183,0.122,0.35074999999999995
23,1,2,0,2,20.983999999999984,20,108,56,57,47,53,21.959999999999983,3.0499999999999976,1.1589999999999994,8.234999999999994,20,11,2,15,110,14,2,32,4,0.5,29,4.25,6,L,0.1996363636363636,0.21785714285714283,0.5794999999999998,0.25734375
23,2,3,0,7,20.129999999999985,20,114,69,16,21,17,30.19499999999998,0.9149999999999996,0.244,0.244,20,5,2,2,164,6,2,2,6,0.5,40,5.5,6,L,0.18411585365853658,0.1525,0.122,0.122
23,2,4,0,10,10.247999999999992,15,62,94,96,58,92,11.83399999999999,1.8299999999999987,12.93199999999999,0.061,20,6,18,1,67,7,50,1,3,0.5,22,3.25,6,L,0.1766268656716418,0.26142857142857134,0.25864,0.061
23,3,5,0,2,19.458999999999985,20,95,52,16,56,54,20.800999999999984,6.038999999999995,0.6709999999999998,1.3419999999999992,20,16,4,6,100,28,4,6,4,0.5,30,4.5,6,L,0.20801,0.21567857142857141,0.16775,0.22366666666666665
23,3,6,0,5,20.495999999999984,20,93,45,63,5,3,22.447999999999983,1.3419999999999992,13.11499999999999,3.842999999999997,20,2,16,13,100,2,44,19,5,0,21,5.25,6,L,0.22447999999999999,0.6709999999999997,0.2980681818181818,0.2022631578947368
23,4,7,0,5,24.88799999999998,15,112,37,7,9,6,25.37599999999998,3.0499999999999976,5.977999999999995,8.966999999999993,17,5,16,13,114,12,26,32,5,0.5,41,5.75,6,L,0.22259649122807015,0.25416666666666665,0.2299230769230769,0.28021874999999996
23,4,8,0,1,25.49799999999998,17,121,74,15,17,58,25.61999999999998,9.698999999999993,4.7579999999999965,3.2939999999999974,18,16,14,11,122,45,23,17,3,0,19,4.75,6,L,0.21,0.21553333333333333,0.2068695652173913,0.19376470588235295
23,5,9,0,2,32.20799999999998,18,133,52,53,51,7,32.75699999999998,0.9759999999999995,3.3549999999999973,5.062999999999996,20,6,10,15,135,6,12,25,4,0.5,30,4.5,6,L,0.2426444444444444,0.16266666666666665,0.2795833333333333,0.20251999999999998
23,5,10,0,9,15.737999999999987,18,72,67,14,71,63,17.201999999999988,10.491999999999992,0.427,2.2569999999999983,20,17,3,5,80,50,3,8,4,0.5,30,4.5,6,L,0.21502499999999997,0.20984,0.14233333333333334,0.28212499999999996
24,1,1,0,4,24.15599999999998,19,105,107,102,99,98,24.39999999999998,1.0979999999999994,0.305,3.3549999999999973,20,3,4,10,106,3,4,14,2,1,24,2,6,L,0.230188679245283,0.366,0.07625,0.23964285714285713
24,1,2,0,8,21.776999999999983,20,116,119,118,113,27,22.020999999999983,1.8909999999999987,0.427,3.1109999999999975,20,7,4,10,118,10,4,15,2,0.5,17,2.75,6,L,0.1866186440677966,0.1891,0.10675,0.2074
24,2,3,0,10,16.34799999999999,18,81,87,89,90,1,18.909999999999986,0.183,0.183,3.2329999999999974,20,2,2,10,98,2,2,15,3,0.5,24,3.75,6,L,0.19295918367346937,0.0915,0.0915,0.21553333333333333
24,2,4,0,7,13.724999999999989,17,80,17,18,44,75,15.737999999999987,0.061,4.208999999999997,3.2939999999999974,20,1,10,6,89,1,19,8,6,0,20,5,6,L,0.17683146067415728,0.061,0.22152631578947365,0.41174999999999984
24,3,5,0,2,24.88799999999998,20,117,54,16,53,52,24.94899999999998,1.0369999999999995,0.244,1.585999999999999,20,2,3,9,118,2,3,10,4,0.5,30,4.5,6,L,0.2114322033898305,0.5184999999999997,0.08133333333333333,0.1586
24,3,6,0,4,36.59999999999997,16,160,103,2,108,104,39.58899999999997,8.722999999999994,1.524999999999999,0.7319999999999998,20,17,7,4,169,37,9,4,2,0.5,18,3,6,L,0.23425443786982247,0.23575675675675672,0.16944444444444443,0.183
24,4,7,0,9,44.651999999999965,19,199,66,67,4,62,44.712999999999965,0.427,6.587999999999995,0.9149999999999996,20,2,14,5,200,2,26,5,4,0.5,30,4.5,6,L,0.22356499999999999,0.2135,0.2533846153846154,0.183
24,4,8,0,1,17.506999999999987,16,77,82,77,83,84,18.299999999999986,1.4029999999999991,0.6709999999999998,0.488,20,6,5,4,82,9,5,4,3,1,36,3,6,L,0.22317073170731705,0.15588888888888888,0.13419999999999999,0.122
24,5,9,0,10,39.83299999999997,18,171,93,1,27,95,41.05299999999997,8.539999999999994,11.223999999999991,0.061,20,15,18,1,179,26,45,1,3,0,17,4.25,6,L,0.22934636871508376,0.3284615384615384,0.24942222222222218,0.061
24,5,10,0,9,17.994999999999987,20,109,63,67,66,14,22.081999999999983,0.9149999999999996,0.305,13.54199999999999,20,5,4,17,123,5,4,66,4,0.5,30,4.5,6,L,0.17952845528455283,0.183,0.07625,0.2051818181818182
25,1,1,0,2,33.244999999999976,19,173,55,49,53,84,35.257999999999974,3.1719999999999975,0.427,0.122,20,10,4,1,179,19,4,1,4,0.5,27,3.75,6,L,0.19697206703910614,0.16694736842105262,0.10675,0.122
25,1,2,0,10,24.33899999999998,18,138,91,6,11,1,24.46099999999998,6.221999999999995,2.561999999999998,7.746999999999994,19,13,9,14,139,24,11,29,3,0.5,39,5.25,6,L,0.17597841726618704,0.25925,0.2329090909090909,0.26713793103448275
25,2,3,0,2,18.543999999999986,18,85,49,52,54,53,20.312999999999985,0.122,7.563999999999994,0.244,20,1,15,2,95,1,36,2,4,1,48,4,6,L,0.21382105263157894,0.122,0.21011111111111108,0.122
25,2,4,0,4,39.64999999999997,12,152,105,102,5,107,42.21199999999997,0.9759999999999995,1.7079999999999989,0.8539999999999996,20,5,9,5,161,6,12,6,2,0.5,18,3,6,L,0.26218633540372666,0.16266666666666665,0.14233333333333334,0.14233333333333334
25,3,5,0,5,10.918999999999992,18,54,2,4,5,9,25.07099999999998,20.556999999999984,11.345999999999991,0.7929999999999997,20,18,18,3,113,87,44,3,5,1,72,6,6,L,0.22186725663716814,0.23628735632183906,0.25786363636363635,0.26433333333333325
25,3,6,0,8,15.920999999999987,12,73,112,109,114,31,16.713999999999988,4.330999999999997,0.6099999999999999,11.95599999999999,15,11,3,16,76,17,3,55,2,0.5,17,2.75,6,L,0.21992105263157893,0.25476470588235295,0.20333333333333334,0.21738181818181818
25,4,7,0,5,22.874999999999982,19,113,43,42,62,5,23.97299999999998,1.646999999999999,11.650999999999991,4.7579999999999965,20,8,17,10,121,8,52,15,5,0,20,5,6,L,0.19812396694214873,0.205875,0.2240576923076923,0.3171999999999999
25,4,8,0,3,40.44299999999997,17,164,35,26,23,20,41.23599999999997,11.89499999999999,2.683999999999998,10.247999999999992,20,17,10,15,169,42,12,34,5,0,22,5.5,6,L,0.244,0.28321428571428564,0.22366666666666665,0.3014117647058823
25,5,9,0,6,26.22999999999998,14,110,1,4,5,39,26.29099999999998,4.086999999999997,7.746999999999994,1.9519999999999986,15,12,14,5,111,21,30,5,6,0.5,41,5.75,6,L,0.23685585585585583,0.1946190476190476,0.2582333333333333,0.39039999999999997
25,5,10,0,9,12.50499999999999,18,66,71,66,29,67,12.68799999999999,8.295999999999994,2.3789999999999982,0.305,19,16,9,2,67,38,11,2,4,0.5,29,4.25,6,L,0.1893731343283582,0.21831578947368419,0.21627272727272726,0.1525
26,1,1,0,9,33.549999999999976,20,153,64,66,72,3,36.29499999999997,1.646999999999999,0.488,0.8539999999999996,20,8,3,3,163,8,4,4,4,0.5,30,4.5,6,L,0.2226687116564417,0.20587499999999997,0.122,0.2135
26,1,2,0,1,19.336999999999986,19,93,74,77,82,83,23.179999999999982,0.427,0.9149999999999996,0.9149999999999996,20,2,6,5,115,2,6,6,3,1,36,3,6,L,0.2015652173913043,0.2135,0.1525,0.1525
26,2,3,0,7,17.384999999999987,20,84,15,60,13,54,18.238999999999987,28.730999999999977,1.463999999999999,1.0979999999999994,20,19,8,5,90,107,12,5,6,0,20,5,6,L,0.20265555555555553,0.26851401869158875,0.122,0.2196
26,2,4,0,9,36.41699999999997,14,171,64,61,72,6,38.30799999999997,2.622999999999998,1.8909999999999987,1.1589999999999994,20,9,7,3,179,13,7,3,4,0.5,30,4.5,6,L,0.21401117318435753,0.20176923076923076,0.27014285714285713,0.38633333333333325
26,3,5,0,10,15.066999999999988,16,63,87,54,32,11,20.922999999999984,7.685999999999994,11.528999999999991,3.476999999999997,20,16,18,9,92,30,50,10,3,0,18,4.5,6,L,0.22742391304347823,0.2562,0.23057999999999998,0.3477
26,3,6,0,5,41.35799999999997,19,172,40,43,47,62,41.66299999999997,0.9149999999999996,1.3419999999999992,1.4029999999999991,20,3,4,6,174,5,4,8,5,0.5,34,4.75,6,L,0.23944252873563215,0.183,0.3354999999999999,0.175375
26,4,7,0,9,14.700999999999988,19,80,15,64,66,16,25.98599999999998,0.9759999999999995,0.061,0.7929999999999997,20,3,1,4,133,5,1,4,4,0,20,5,6,L,0.19538345864661652,0.19519999999999998,0.061,0.19824999999999998
26,4,8,0,6,21.227999999999984,20,107,1,6,5,90,21.288999999999984,1.2199999999999993,7.441999999999994,1.9519999999999986,20,4,15,6,108,6,28,7,6,0.5,39,5.25,6,L,0.19712037037037036,0.20333333333333334,0.26578571428571424,0.27885714285714286
26,5,9,0,1,25.31499999999998,15,130,3,73,79,53,62.40299999999995,1.9519999999999986,0.305,0.8539999999999996,20,6,2,4,282,7,3,4,3,0,16,4,6,L,0.22128723404255318,0.27885714285714286,0.10166666666666667,0.2135
26,5,10,0,5,20.129999999999985,18,87,48,44,45,24,20.373999999999985,3.476999999999997,3.1719999999999975,7.502999999999994,20,10,9,13,90,15,14,33,5,0.5,36,5.25,6,L,0.22637777777777776,0.23179999999999998,0.22657142857142856,0.22736363636363635
27,1,1,0,4,15.127999999999988,19,64,101,106,100,91,15.615999999999987,1.1589999999999994,5.7949999999999955,5.7949999999999955,20,6,14,13,68,6,23,25,2,0.5,15,2.25,6,L,0.22964705882352937,0.19316666666666665,0.2519565217391304,0.23179999999999998
27,1,2,0,2,35.806999999999974,20,156,55,56,14,37,35.867999999999974,0.122,4.635999999999997,1.524999999999999,20,1,11,5,157,1,20,6,4,0,19,4.75,6,L,0.22845859872611463,0.122,0.23179999999999998,0.25416666666666665
27,2,3,0,2,30.621999999999975,20,149,57,56,50,60,32.57399999999998,0.122,0.9759999999999995,0.183,20,1,5,2,155,1,5,2,4,1,48,4,6,L,0.2101548387096774,0.122,0.19519999999999998,0.0915
27,2,4,0,8,12.13899999999999,16,58,118,114,119,25,19.336999999999986,2.0129999999999986,0.7929999999999997,0.061,20,5,5,1,93,5,5,1,2,0.5,17,2.75,6,L,0.2079247311827957,0.4025999999999999,0.1586,0.061
27,3,5,0,5,23.66799999999998,19,108,43,37,4,65,23.91199999999998,0.305,12.80999999999999,3.2939999999999974,20,1,16,8,109,1,62,13,5,0,20,5,6,L,0.2193761467889908,0.305,0.20661290322580644,0.2533846153846154
27,3,6,0,7,22.874999999999982,12,116,14,16,30,35,22.935999999999982,0.183,9.210999999999993,3.0499999999999976,13,1,14,7,117,1,42,14,6,0,22,5.5,6,L,0.196034188034188,0.183,0.2193095238095238,0.21785714285714283
27,4,7,0,8,32.51299999999998,19,135,117,109,111,87,35.257999999999974,0.366,2.622999999999998,3.903999999999997,20,2,8,11,144,2,12,18,2,0.5,15,2.25,6,L,0.2448472222222222,0.183,0.21858333333333332,0.21688888888888888
27,4,8,0,4,12.32199999999999,19,70,103,97,104,42,15.127999999999988,6.465999999999995,0.061,10.369999999999992,20,16,1,15,79,30,1,44,2,0.5,17,2.75,6,L,0.19149367088607594,0.21553333333333333,0.061,0.23568181818181816
27,5,9,0,1,32.51299999999998,17,143,78,77,10,26,34.830999999999975,3.9649999999999967,0.183,4.818999999999996,20,12,1,15,154,15,1,24,3,0,17,4.25,6,L,0.22617532467532467,0.2643333333333333,0.183,0.20079166666666665
27,5,10,0,5,26.90099999999998,18,128,87,92,15,39,51.23999999999996,1.0369999999999995,9.149999999999993,0.5489999999999999,20,2,17,2,239,3,34,2,5,0,17,4.25,6,L,0.21439330543933052,0.3456666666666667,0.26911764705882346,0.27449999999999997
28,1,1,0,9,37.57599999999997,19,169,69,62,19,43,38.85699999999997,1.2809999999999993,2.1959999999999984,1.524999999999999,20,5,6,4,174,5,7,5,4,0,19,4.75,6,L,0.22331609195402297,0.25619999999999993,0.3137142857142856,0.305
28,1,2,0,4,25.37599999999998,19,97,101,99,7,103,26.65699999999998,2.622999999999998,2.1959999999999984,7.319999999999994,20,11,9,15,103,14,14,33,2,0.5,18,3,6,L,0.25880582524271845,0.18735714285714286,0.15685714285714286,0.2218181818181818
28,2,3,0,3,20.190999999999985,18,95,30,34,49,16,24.39999999999998,0.061,9.881999999999993,0.7929999999999997,20,1,17,4,110,1,34,4,5,0,20,5,6,L,0.2218181818181818,0.061,0.29064705882352937,0.19824999999999998
28,2,4,0,4,32.81799999999998,20,156,103,97,102,101,34.098999999999975,1.8909999999999987,1.463999999999999,1.9519999999999986,20,6,5,11,161,8,6,12,2,1,24,2,6,L,0.2117950310559006,0.23637499999999995,0.244,0.16266666666666665
28,3,5,0,7,14.334999999999988,16,70,13,20,84,25,14.639999999999988,5.489999999999996,20.312999999999985,11.345999999999991,18,9,15,14,72,16,72,44,6,0,20,5,6,L,0.2033333333333333,0.34312499999999996,0.28212499999999996,0.25786363636363635
28,3,6,0,4,11.77299999999999,18,56,100,9,108,70,14.029999999999989,3.720999999999997,2.0129999999999986,4.818999999999996,20,11,9,15,67,15,10,21,2,0,14,3.5,6,L,0.20940298507462685,0.24806666666666666,0.20129999999999998,0.22947619047619044
28,4,7,0,8,11.95599999999999,19,62,32,13,60,110,47.82399999999996,0.122,0.122,0.305,20,1,1,3,200,1,1,3,2,0,17,4.25,6,L,0.23911999999999997,0.122,0.122,0.10166666666666667
28,4,8,0,10,26.90099999999998,20,119,94,90,70,65,27.693999999999978,0.6709999999999998,5.428999999999996,4.879999999999996,20,5,11,12,125,5,21,24,3,0,14,3.5,6,L,0.22155199999999997,0.13419999999999999,0.2585238095238095,0.2033333333333333
28,5,9,0,3,22.874999999999982,17,112,28,27,30,7,24.21699999999998,0.9149999999999996,0.7319999999999998,5.062999999999996,20,6,5,11,122,6,5,14,5,0.5,36,5.25,6,L,0.19849999999999998,0.1525,0.1464,0.3616428571428571
28,5,10,0,1,19.153999999999986,14,95,13,100,83,82,61.73199999999996,0.244,0.122,0.061,20,1,1,1,266,1,1,1,3,0,14,3.5,6,L,0.2320751879699248,0.244,0.122,0.061
29,1,1,0,4,30.621999999999975,19,116,106,6,98,72,30.865999999999975,10.796999999999992,0.122,0.061,20,17,1,1,117,44,1,1,2,0,14,3.5,6,L,0.2638119658119658,0.2453863636363636,0.122,0.061
29,1,2,0,1,20.495999999999984,19,89,77,78,82,48,21.654999999999983,1.7689999999999988,0.061,11.406999999999991,20,10,1,16,95,11,1,41,3,0.5,23,3.5,6,L,0.22794736842105262,0.1608181818181818,0.061,0.2782195121951219
29,2,3,0,8,16.28699999999999,16,83,109,116,117,111,18.421999999999986,0.5489999999999999,1.646999999999999,0.244,20,3,8,2,92,3,11,2,2,1,24,2,6,L,0.2002391304347826,0.183,0.14972727272727274,0.122
29,2,4,0,9,41.84599999999997,16,186,61,43,70,65,42.15099999999997,5.245999999999996,2.2569999999999983,1.463999999999999,18,12,6,9,188,19,7,11,4,0.5,29,4.25,6,L,0.22420744680851062,0.2761052631578947,0.32242857142857134,0.1330909090909091
29,3,5,0,1,30.316999999999975,17,136,73,74,82,20,33.183999999999976,0.183,1.2199999999999993,10.430999999999992,20,1,5,16,155,1,6,40,3,0.5,24,3.75,6,L,0.21409032258064514,0.183,0.20333333333333334,0.260775
29,3,6,0,8,18.970999999999986,18,90,117,118,114,112,19.397999999999985,0.6099999999999999,0.9149999999999996,1.524999999999999,20,3,6,6,92,3,7,7,2,1,24,2,6,L,0.2108478260869565,0.20333333333333334,0.1307142857142857,0.21785714285714286
29,4,7,0,3,25.74199999999998,14,113,32,59,20,19,25.86399999999998,13.29799999999999,7.441999999999994,3.659999999999997,15,18,15,8,114,61,30,12,5,0,21,5.25,6,L,0.22687719298245612,0.21799999999999997,0.24806666666666663,0.30499999999999994
29,4,8,0,1,50.81299999999996,16,206,83,46,44,74,51.11799999999996,1.3419999999999992,5.245999999999996,1.2199999999999993,19,2,13,4,209,3,24,4,3,0,16,4,6,L,0.24458373205741624,0.4473333333333333,0.21858333333333332,0.305
29,5,9,0,2,22.386999999999983,14,89,58,53,59,60,23.66799999999998,4.940999999999996,9.332999999999993,0.7319999999999998,20,11,14,4,99,18,30,4,4,1,48,4,6,L,0.23907070707070704,0.27449999999999997,0.31109999999999993,0.183
29,5,10,0,1,23.72899999999998,20,112,76,74,84,63,24.64399999999998,2.1349999999999985,3.1109999999999975,5.428999999999996,20,10,8,9,115,13,12,17,3,0.5,22,3.25,6,L,0.21429565217391303,0.16423076923076924,0.25925,0.31935294117647056
30,1,1,0,4,15.859999999999987,19,72,105,98,41,103,17.018999999999988,0.061,1.2199999999999993,11.101999999999991,20,1,2,14,77,1,3,47,2,0.5,17,2.75,6,L,0.221025974025974,0.061,0.40666666666666657,0.23621276595744678
30,1,2,0,3,24.76599999999998,18,103,35,5,6,28,27.205999999999978,12.62699999999999,0.122,1.0369999999999995,20,17,1,5,114,63,1,5,5,0,22,5.5,6,L,0.23864912280701753,0.20042857142857143,0.122,0.20739999999999997
30,2,3,0,5,14.944999999999988,16,74,59,89,95,14,42.21199999999997,4.208999999999997,0.488,0.122,20,9,4,1,189,10,4,1,5,0,16,4,6,L,0.22334391534391532,0.42089999999999983,0.122,0.122
30,2,4,0,9,56.851999999999954,17,250,67,72,36,9,58.62099999999995,1.524999999999999,1.0979999999999994,1.1589999999999994,20,5,5,3,256,6,5,3,4,0,19,4.75,6,L,0.22898828124999998,0.25416666666666665,0.2196,0.3863333333333332
30,3,5,0,6,17.872999999999987,18,82,3,45,8,67,32.39099999999998,1.524999999999999,0.122,0.7319999999999998,20,8,1,4,136,9,1,4,6,0,21,5.25,6,L,0.23816911764705878,0.16944444444444445,0.122,0.183
30,3,6,0,8,27.876999999999978,18,136,115,110,32,119,28.120999999999977,2.622999999999998,4.208999999999997,0.305,19,11,9,2,137,16,11,2,2,0.5,17,2.75,6,L,0.20526277372262772,0.16393749999999999,0.38263636363636355,0.1525
30,4,7,0,10,26.47399999999998,17,104,93,88,4,1,30.133999999999975,1.3419999999999992,0.427,0.6709999999999998,20,5,1,2,118,5,1,2,3,0,18,4.5,6,L,0.25537288135593217,0.26839999999999997,0.427,0.3354999999999999
30,4,8,0,2,34.342999999999975,20,158,49,57,75,60,36.96599999999997,6.648999999999995,2.744999999999998,0.427,20,13,11,3,169,25,13,3,4,0.5,27,3.75,6,L,0.21873372781065087,0.2659599999999999,0.21115384615384614,0.14233333333333334
30,5,9,0,4,33.976999999999975,20,148,100,104,99,19,34.220999999999975,2.805999999999998,0.8539999999999996,1.524999999999999,20,10,7,4,151,16,7,9,2,0.5,18,3,6,L,0.22662913907284765,0.17537499999999998,0.122,0.16944444444444445
30,5,10,0,6,17.262999999999987,19,92,5,6,7,70,19.214999999999986,0.488,5.916999999999995,0.488,20,3,13,2,98,4,21,2,6,0.5,40,5.5,6,L,0.19607142857142856,0.122,0.2817619047619047,0.244
31,1,1,0,1,24.52199999999998,17,92,76,75,63,28,26.16899999999998,0.183,9.759999999999993,0.061,20,1,17,1,102,1,41,1,3,0,15,3.75,6,L,0.25655882352941173,0.183,0.23804878048780487,0.061
31,1,2,0,8,20.922999999999984,18,100,111,120,45,17,23.301999999999982,0.305,2.2569999999999983,1.7689999999999988,20,2,6,3,109,2,7,4,2,0,15,3.75,6,L,0.21377981651376146,0.1525,0.32242857142857134,0.4422499999999999
31,2,3,0,10,16.957999999999988,20,94,95,85,13,96,18.848999999999986,0.122,8.600999999999994,3.842999999999997,20,1,14,10,104,1,31,12,3,0.5,24,3.75,6,L,0.1812403846153846,0.122,0.2774516129032258,0.32025
31,2,4,0,9,27.205999999999978,19,140,69,62,42,10,27.327999999999978,3.3549999999999973,1.0369999999999995,6.099999999999995,20,9,4,14,141,13,4,27,4,0,19,4.75,6,L,0.19381560283687943,0.25807692307692304,0.25925,0.22592592592592592
31,3,5,0,7,18.055999999999987,19,94,62,13,36,15,32.08599999999998,1.0369999999999995,1.0369999999999995,0.122,20,5,5,2,149,5,5,2,6,0,21,5.25,6,L,0.2153422818791946,0.20739999999999997,0.2074,0.061
31,3,6,0,5,17.628999999999987,19,79,46,2,54,86,22.447999999999983,1.3419999999999992,11.162999999999991,13.846999999999989,20,5,16,13,98,5,47,43,5,0,18,4.5,6,L,0.2290612244897959,0.2683999999999999,0.2375106382978723,0.3220232558139534
31,4,7,0,8,23.057999999999982,19,94,110,50,25,116,24.33899999999998,13.05399999999999,9.027999999999993,0.5489999999999999,20,18,17,2,101,62,44,2,2,0,13,3.25,6,L,0.24098019801980194,0.21054838709677418,0.20518181818181816,0.27449999999999997
31,4,8,0,4,16.835999999999988,18,83,100,44,101,48,16.896999999999988,7.624999999999994,2.1959999999999984,0.6099999999999999,19,16,4,2,84,39,4,4,2,0,14,3.5,6,L,0.2011547619047619,0.1955128205128205,0.5489999999999997,0.1525
31,5,9,0,9,18.177999999999987,20,96,63,6,45,4,23.42399999999998,8.356999999999994,12.44399999999999,0.6099999999999999,20,17,17,4,120,41,47,4,4,0,21,5.25,6,L,0.19519999999999998,0.2038292682926829,0.2647659574468085,0.1525
31,5,10,0,10,20.251999999999985,19,88,87,14,90,94,21.288999999999984,3.9649999999999967,0.061,3.537999999999997,20,8,1,10,93,13,1,13,3,0.5,24,3.75,6,L,0.22891397849462364,0.30499999999999994,0.061,0.2721538461538461
32,1,1,0,7,23.72899999999998,20,124,17,28,18,66,23.78999999999998,7.319999999999994,2.0129999999999986,5.977999999999995,20,13,6,11,125,35,9,22,6,0,21,5.25,6,L,0.19032,0.2091428571428571,0.22366666666666662,0.2717272727272727
32,1,2,0,2,30.804999999999975,20,136,2,49,60,53,32.51299999999998,0.122,1.8909999999999987,0.488,20,1,9,3,143,1,10,3,4,0.5,30,4.5,6,L,0.22736363636363635,0.122,0.1891,0.16266666666666665
32,2,3,0,1,16.40899999999999,16,73,77,76,74,79,17.018999999999988,0.7319999999999998,0.9759999999999995,1.8909999999999987,19,2,5,7,76,2,5,9,3,1,36,3,6,L,0.22393421052631576,0.366,0.19519999999999998,0.2101111111111111
32,2,4,0,2,24.46099999999998,20,115,50,53,60,57,27.14499999999998,0.9759999999999995,2.1349999999999985,3.3549999999999973,20,9,8,11,125,10,9,14,4,1,48,4,6,L,0.21716,0.09759999999999999,0.23722222222222222,0.23964285714285713
32,3,5,0,4,17.079999999999988,17,72,1,105,104,29,35.562999999999974,1.2809999999999993,1.0369999999999995,0.122,20,6,5,1,151,6,5,1,2,0,15,3.75,6,L,0.2355165562913907,0.2135,0.20739999999999997,0.122
32,3,6,0,1,26.16899999999998,17,113,82,80,76,79,26.22999999999998,0.305,2.8669999999999978,2.2569999999999983,18,3,12,9,114,3,16,13,3,1,36,3,6,L,0.2300877192982456,0.10166666666666667,0.1791875,0.17361538461538462
32,4,7,0,4,33.488999999999976,19,129,104,68,105,101,34.159999999999975,12.19999999999999,0.366,2.0739999999999985,20,18,2,8,131,57,2,9,2,0.5,16,2.5,6,L,0.2607633587786259,0.21403508771929822,0.183,0.2304444444444444
32,4,8,0,6,16.16499999999999,20,78,5,4,60,2,18.116999999999987,4.330999999999997,8.051999999999994,3.9649999999999967,20,10,16,8,87,13,34,15,6,0.5,40,5.5,6,L,0.2082413793103448,0.3331538461538461,0.23682352941176468,0.2643333333333333
32,5,9,0,1,29.279999999999976,18,145,80,84,79,74,29.950999999999976,2.3179999999999983,0.305,4.574999999999997,20,6,2,11,149,8,2,17,3,1,36,3,6,L,0.20101342281879192,0.28974999999999995,0.1525,0.26911764705882346
32,5,10,0,6,20.861999999999984,18,100,1,10,6,9,24.58299999999998,0.7319999999999998,0.8539999999999996,0.122,20,4,4,2,119,5,4,2,6,1,72,6,6,L,0.2065798319327731,0.1464,0.2135,0.061
33,1,1,0,1,22.996999999999982,20,100,77,76,73,36,23.78999999999998,4.452999999999997,1.3419999999999992,0.6099999999999999,20,16,7,4,105,25,8,4,3,0.5,23,3.5,6,L,0.22657142857142856,0.17812,0.16774999999999998,0.1525
33,1,2,0,9,19.885999999999985,19,79,71,15,37,22,26.22999999999998,7.563999999999994,0.6709999999999998,1.0979999999999994,20,13,3,3,105,29,3,3,4,0,21,5.25,6,L,0.2498095238095238,0.2608275862068965,0.22366666666666665,0.3659999999999999
33,2,3,0,9,17.323999999999987,16,75,63,66,32,36,17.689999999999987,3.2329999999999974,7.746999999999994,1.7689999999999988,18,10,14,7,77,17,28,9,4,0,18,4.5,6,L,0.22974025974025972,0.19017647058823528,0.2766785714285714,0.19655555555555554
33,2,4,0,2,17.933999999999987,19,80,14,45,51,42,25.68099999999998,0.183,0.122,0.427,20,1,2,3,106,1,2,4,4,0,20,5,6,L,0.24227358490566034,0.183,0.061,0.10675
33,3,5,0,8,10.674999999999992,18,56,116,118,119,25,14.029999999999989,6.404999999999995,1.8909999999999987,7.624999999999994,20,14,11,14,68,19,12,31,2,0.5,17,2.75,6,L,0.20632352941176468,0.3371052631578947,0.15758333333333333,0.24596774193548385
33,3,6,0,4,52.82599999999996,16,216,106,67,98,61,56.241999999999955,0.244,1.1589999999999994,0.8539999999999996,20,1,5,6,226,1,5,6,2,0,12,3,6,L,0.248858407079646,0.244,0.23179999999999998,0.14233333333333334
33,4,7,0,2,32.20799999999998,16,132,49,14,56,33,34.891999999999975,8.478999999999994,0.061,0.244,20,19,1,2,142,41,1,2,4,0,19,4.75,6,L,0.2457183098591549,0.20680487804878048,0.061,0.122
33,4,8,0,4,18.360999999999986,20,95,101,108,85,100,24.33899999999998,3.3549999999999973,9.149999999999993,5.7339999999999955,20,11,17,12,120,15,39,17,2,0.5,15,2.25,6,L,0.20282499999999998,0.22366666666666662,0.2346153846153846,0.33729411764705874
33,5,9,0,2,15.432999999999987,20,77,60,13,51,22,18.177999999999987,15.920999999999987,1.463999999999999,0.5489999999999999,20,19,5,3,86,64,8,3,4,0,20,5,6,L,0.2113720930232558,0.24876562499999996,0.183,0.183
33,5,10,0,5,14.517999999999988,19,67,42,89,2,4,17.689999999999987,28.242999999999977,4.391999999999997,0.488,20,19,16,4,85,126,22,4,5,0,20,5,6,L,0.20811764705882352,0.22415079365079363,0.1996363636363636,0.122
34,1,1,0,5,19.580999999999985,19,94,37,45,44,9,21.044999999999984,0.061,2.8669999999999978,4.269999999999997,20,1,10,14,103,1,13,23,5,0.5,36,5.25,6,L,0.20432038834951455,0.061,0.22053846153846154,0.18565217391304348
34,1,2,0,4,30.255999999999975,20,141,101,108,100,29,31.414999999999974,0.183,0.183,6.648999999999995,20,3,2,9,146,3,2,21,2,0.5,17,2.75,6,L,0.2151712328767123,0.061,0.0915,0.3166190476190476
34,2,3,0,5,62.95199999999995,16,266,41,37,62,38,63.74499999999995,0.244,5.123999999999996,5.306999999999996,19,1,10,15,270,1,21,30,5,0.5,34,4.75,6,L,0.23609259259259258,0.244,0.24399999999999997,0.17689999999999997
34,2,4,0,2,37.14899999999997,18,134,14,29,53,90,49.04399999999996,1.3419999999999992,0.183,0.7929999999999997,20,5,2,3,170,5,2,3,4,0,18,4.5,6,L,0.2884941176470588,0.26839999999999997,0.0915,0.2643333333333333
34,3,5,0,6,7.258999999999994,16,35,3,6,7,11,22.386999999999983,0.061,4.208999999999997,2.1349999999999985,20,1,14,5,96,1,20,5,6,1,72,6,6,L,0.23319791666666664,0.061,0.21045,0.4269999999999999
34,3,6,0,7,10.735999999999992,14,51,13,17,23,15,11.467999999999991,0.9149999999999996,3.537999999999997,11.162999999999991,18,6,9,17,56,6,13,56,6,1,72,6,6,L,0.20478571428571427,0.1525,0.27215384615384614,0.19933928571428572
34,4,7,0,6,30.377999999999975,17,128,4,5,12,37,30.438999999999975,1.7689999999999988,2.500999999999998,21.532999999999983,18,9,13,16,129,13,16,91,6,0.5,41,5.75,6,L,0.2359612403100775,0.13607692307692307,0.1563125,0.23662637362637362
34,4,8,0,7,18.604999999999986,20,84,13,23,16,18,18.665999999999986,3.659999999999997,5.001999999999996,1.1589999999999994,20,11,11,3,85,14,21,3,6,1,72,6,6,L,0.2196,0.2614285714285714,0.23819047619047615,0.3863333333333332
34,5,9,0,4,14.883999999999988,18,78,4,92,49,108,39.34499999999997,0.488,0.122,3.2329999999999974,20,1,1,7,176,1,1,9,2,0,15,3.75,6,L,0.22355113636363633,0.488,0.122,0.35922222222222217
34,5,10,0,7,28.669999999999977,18,133,19,23,21,20,29.096999999999976,3.9649999999999967,0.183,21.898999999999983,20,10,1,17,137,14,1,107,6,1,72,6,6,L,0.2123868613138686,0.28321428571428564,0.183,0.20466355140186915
35,1,1,0,4,9.576999999999993,16,51,99,15,24,98,12.19999999999999,2.744999999999998,3.781999999999997,3.1719999999999975,20,11,11,10,61,15,13,15,2,0,16,4,6,L,0.19999999999999998,0.183,0.29092307692307684,0.21146666666666666
35,1,2,0,8,16.713999999999988,19,78,119,118,1,114,20.739999999999984,0.427,6.160999999999995,0.8539999999999996,20,3,14,4,94,3,30,4,2,0.5,18,3,6,L,0.2206382978723404,0.14233333333333334,0.20536666666666667,0.21349999999999997
35,2,3,0,3,23.72899999999998,20,121,29,35,60,27,24.64399999999998,0.6709999999999998,4.635999999999997,0.9759999999999995,20,3,11,4,124,3,17,4,5,0.5,34,4.75,6,L,0.19874193548387095,0.22366666666666665,0.27270588235294113,0.244
35,2,4,0,8,15.310999999999988,17,77,72,38,115,116,36.35599999999997,12.68799999999999,0.7319999999999998,0.061,20,19,4,1,156,47,4,1,2,0,13,3.25,6,L,0.23305128205128203,0.2699574468085106,0.183,0.061
35,3,5,0,5,11.95599999999999,20,65,88,93,49,55,40.56499999999997,4.330999999999997,2.439999999999998,0.366,20,11,10,3,182,13,10,3,5,0,14,3.5,6,L,0.22288461538461538,0.3331538461538461,0.244,0.122
35,3,6,0,3,26.47399999999998,18,114,105,28,26,34,31.536999999999974,0.488,0.061,2.683999999999998,20,1,1,8,133,1,1,9,5,0.5,32,4.25,6,L,0.23712030075187968,0.488,0.061,0.29822222222222217
35,4,7,0,8,31.841999999999974,20,148,113,36,120,117,32.02499999999998,1.7689999999999988,0.183,0.122,20,5,2,2,149,8,2,2,2,0.5,17,2.75,6,L,0.21493288590604023,0.22112499999999996,0.0915,0.061
35,4,8,0,1,52.82599999999996,17,218,76,7,75,74,53.31399999999996,3.903999999999997,1.585999999999999,8.356999999999994,19,11,8,14,220,13,11,37,3,0.5,24,3.75,6,L,0.24233636363636363,0.3003076923076923,0.1441818181818182,0.22586486486486484
35,5,9,0,8,25.49799999999998,18,114,116,58,119,26,27.205999999999978,6.770999999999995,1.0369999999999995,3.659999999999997,20,14,5,12,119,26,6,16,2,0,13,3.25,6,L,0.2286218487394958,0.2604230769230769,0.17283333333333334,0.22875
35,5,10,0,5,26.77899999999998,19,142,43,11,8,6,27.510999999999978,0.9759999999999995,12.99299999999999,11.162999999999991,20,4,17,15,147,6,59,49,5,0.5,41,5.75,6,L,0.18714965986394558,0.16266666666666665,0.22022033898305082,0.22781632653061223
36,1,1,0,5,23.72899999999998,20,111,43,51,6,87,26.90099999999998,5.428999999999996,3.1109999999999975,0.9759999999999995,20,11,9,3,125,19,14,3,5,0,18,4.5,6,L,0.21520799999999998,0.2857368421052631,0.2222142857142857,0.3253333333333333
36,1,2,0,3,28.913999999999977,20,132,14,25,63,17,68.19799999999995,0.061,0.061,0.427,20,1,1,3,305,1,1,3,5,0,21,5.25,6,L,0.2236,0.061,0.061,0.14233333333333334
36,2,3,0,1,9.881999999999993,18,48,74,82,84,83,21.898999999999983,1.4029999999999991,0.244,0.366,20,11,2,4,91,11,2,5,3,1,36,3,6,L,0.2406483516483516,0.12754545454545455,0.122,0.0732
36,2,4,0,4,21.349999999999984,17,95,103,98,107,26,23.240999999999982,1.1589999999999994,0.061,3.4159999999999973,20,4,1,10,107,4,1,13,2,0.5,17,2.75,6,L,0.2172056074766355,0.28974999999999995,0.061,0.2627692307692307
36,3,5,0,6,8.966999999999993,16,42,12,7,3,8,10.247999999999992,3.1109999999999975,1.4029999999999991,0.5489999999999999,20,12,7,2,51,15,7,2,6,1,72,6,6,L,0.20094117647058823,0.20739999999999997,0.20042857142857143,0.27449999999999997
36,3,6,0,9,14.578999999999988,19,73,68,62,18,72,15.188999999999988,2.0739999999999985,20.739999999999984,4.940999999999996,20,7,18,15,77,10,100,22,4,0.5,30,4.5,6,L,0.19725974025974025,0.20739999999999997,0.2074,0.22459090909090906
36,4,7,0,7,14.273999999999988,15,60,16,22,20,17,14.334999999999988,1.8299999999999987,0.061,2.9889999999999977,16,6,1,14,61,7,1,18,6,1,72,6,6,L,0.235,0.2614285714285714,0.061,0.16605555555555554
36,4,8,0,10,30.560999999999975,16,144,88,94,85,25,33.793999999999976,2.439999999999998,8.478999999999994,3.1719999999999975,20,11,17,10,156,14,46,13,3,0.5,23,3.5,6,L,0.2166282051282051,0.1742857142857143,0.18432608695652172,0.244
36,5,9,0,6,22.874999999999982,18,114,6,99,63,11,23.179999999999982,5.245999999999996,9.088999999999993,2.8669999999999978,20,9,15,9,117,18,37,15,6,0,18,4.5,6,L,0.1981196581196581,0.2914444444444444,0.2456486486486486,0.19113333333333332
36,5,10,0,7,25.61999999999998,20,127,17,14,23,41,25.98599999999998,12.38299999999999,0.7929999999999997,0.305,20,18,2,1,130,37,2,1,6,0.5,41,5.75,6,L,0.19989230769230767,0.33467567567567563,0.39649999999999985,0.305
37,1,1,0,10,18.360999999999986,20,104,16,63,93,95,48.25099999999996,0.5489999999999999,0.122,0.5489999999999999,20,4,2,3,235,5,2,4,3,0,16,4,6,L,0.20532340425531914,0.1098,0.061,0.13724999999999998
37,1,2,0,6,15.798999999999987,20,76,11,9,5,6,19.275999999999986,0.183,4.269999999999997,0.183,20,1,11,1,82,1,22,1,6,1,72,6,6,L,0.2350731707317073,0.183,0.1940909090909091,0.183
37,2,3,0,5,20.251999999999985,20,99,90,91,14,55,32.20799999999998,3.720999999999997,0.6099999999999999,1.2199999999999993,20,11,3,7,146,17,4,10,5,0,16,4,6,L,0.22060273972602737,0.21888235294117644,0.1525,0.122
37,2,4,0,3,24.58299999999998,18,110,27,30,29,72,25.61999999999998,0.061,0.5489999999999999,3.3549999999999973,20,1,3,8,117,1,3,13,5,0.5,34,4.75,6,L,0.21897435897435896,0.061,0.183,0.25807692307692304
37,3,5,0,6,21.349999999999984,17,87,6,1,10,50,22.386999999999983,17.323999999999987,3.720999999999997,0.183,20,18,11,1,92,68,17,1,6,0.5,40,5.5,6,L,0.24333695652173912,0.2547647058823529,0.21888235294117644,0.183
37,3,6,0,1,17.140999999999988,19,85,75,77,73,80,17.872999999999987,0.305,0.305,2.0129999999999986,20,2,2,7,88,2,2,11,3,1,36,3,6,L,0.20310227272727271,0.1525,0.1525,0.183
37,4,7,0,8,19.153999999999986,11,80,117,113,120,4,20.556999999999984,0.488,2.9279999999999977,4.269999999999997,15,5,5,8,85,5,7,16,2,0.5,18,3,6,L,0.2418470588235294,0.09759999999999999,0.4182857142857142,0.266875
37,4,8,0,3,19.336999999999986,17,91,33,34,22,27,24.33899999999998,0.061,0.9759999999999995,0.5489999999999999,20,1,4,3,106,1,5,3,5,0.5,36,5.25,6,L,0.2296132075471698,0.061,0.19519999999999998,0.183
37,5,9,0,5,44.163999999999966,17,192,41,44,13,24,44.468999999999966,1.463999999999999,7.075999999999994,2.500999999999998,19,7,16,7,194,8,32,8,5,0,22,5.5,6,L,0.22922164948453605,0.183,0.22112499999999996,0.31262499999999993
37,5,10,0,6,24.82699999999998,15,126,7,10,9,91,25.80299999999998,1.646999999999999,17.262999999999987,0.5489999999999999,20,5,16,4,132,7,56,4,6,0.5,39,5.25,6,L,0.19547727272727272,0.23528571428571426,0.3082678571428571,0.13724999999999998
38,1,1,0,6,14.578999999999988,19,65,50,2,59,46,29.157999999999976,2.1349999999999985,0.244,1.4029999999999991,20,11,1,7,120,14,1,7,6,0,19,4.75,6,L,0.2429833333333333,0.1525,0.244,0.20042857142857143
38,1,2,0,3,34.952999999999975,19,155,34,28,20,35,37.20999999999997,0.488,2.622999999999998,3.1109999999999975,20,4,7,10,164,4,9,16,5,0.5,36,5.25,6,L,0.226890243902439,0.122,0.29144444444444445,0.19443749999999999
38,2,3,0,9,16.774999999999988,19,77,13,70,40,62,32.45199999999998,0.122,1.463999999999999,0.061,20,1,3,1,140,1,3,1,4,0,19,4.75,6,L,0.23179999999999998,0.122,0.48799999999999993,0.061
38,2,4,0,3,18.909999999999986,20,100,25,29,58,55,23.78999999999998,0.366,6.282999999999995,4.208999999999997,20,3,10,10,117,3,17,18,5,0,18,4.5,6,L,0.2033333333333333,0.122,0.36958823529411755,0.2338333333333333
38,3,5,0,6,11.467999999999991,19,58,6,7,9,12,22.203999999999983,1.0979999999999994,0.305,1.7689999999999988,20,5,4,6,108,5,4,6,6,1,72,6,6,L,0.20559259259259258,0.2196,0.07625,0.29483333333333334
38,3,6,0,7,24.39999999999998,20,129,17,24,38,20,24.46099999999998,5.367999999999996,5.123999999999996,15.493999999999987,20,12,11,16,130,20,17,74,6,0.5,41,5.75,6,L,0.18816153846153846,0.26839999999999997,0.3014117647058823,0.20937837837837836
38,4,7,0,8,17.323999999999987,16,86,115,113,118,54,18.665999999999986,0.061,1.0979999999999994,0.8539999999999996,20,1,7,3,92,1,7,4,2,0.5,16,2.5,6,L,0.20289130434782607,0.061,0.15685714285714286,0.2135
38,4,8,0,5,27.632999999999978,13,126,16,42,22,20,70.39399999999995,0.305,1.2809999999999993,7.746999999999994,20,3,8,16,308,3,9,30,5,0.5,41,5.75,6,L,0.22855194805194803,0.10166666666666667,0.14233333333333334,0.25823333333333326
38,5,9,0,5,27.815999999999978,20,122,39,46,45,47,28.486999999999977,0.6099999999999999,0.244,1.0369999999999995,20,3,2,5,126,3,2,7,5,1,60,5,6,L,0.22608730158730156,0.20333333333333334,0.122,0.14814285714285713
38,5,10,0,2,39.34499999999997,16,166,28,57,29,53,44.590999999999966,1.2809999999999993,0.305,1.3419999999999992,20,5,2,3,187,6,2,3,4,0,18,4.5,6,L,0.23845454545454545,0.2135,0.1525,0.44733333333333325
39,1,1,0,9,23.057999999999982,19,134,61,70,64,68,24.52199999999998,0.122,0.5489999999999999,1.0979999999999994,20,2,3,6,137,2,4,6,4,1,48,4,6,L,0.17899270072992698,0.061,0.13724999999999998,0.183
39,1,2,0,7,21.654999999999983,19,105,18,13,56,39,22.447999999999983,21.471999999999984,1.463999999999999,4.269999999999997,20,19,8,13,113,80,9,16,6,0,21,5.25,6,L,0.19865486725663717,0.26839999999999997,0.16266666666666665,0.266875
39,2,3,0,9,19.519999999999985,20,94,11,66,63,68,48.73899999999996,0.7319999999999998,2.1349999999999985,0.122,20,3,10,2,206,4,11,2,4,0.5,30,4.5,6,L,0.23659708737864074,0.183,0.1940909090909091,0.061
39,2,4,0,10,28.364999999999977,19,133,86,88,59,54,30.682999999999975,0.061,5.550999999999996,0.7929999999999997,20,1,16,4,141,1,30,4,3,0,14,3.5,6,L,0.21760992907801419,0.061,0.18503333333333333,0.19824999999999998
39,3,5,0,1,24.82699999999998,15,115,76,74,73,22,26.83999999999998,0.061,1.0369999999999995,10.918999999999992,20,1,5,16,123,1,5,40,3,0.5,24,3.75,6,L,0.21821138211382113,0.061,0.2074,0.27297499999999997
39,3,6,0,6,12.80999999999999,19,65,2,4,7,12,14.151999999999989,0.9759999999999995,1.524999999999999,0.9149999999999996,20,4,5,4,72,5,5,5,6,1,72,6,6,L,0.19655555555555554,0.19519999999999998,0.30499999999999994,0.183
39,4,7,0,9,18.299999999999986,16,81,64,63,65,43,19.641999999999985,0.183,1.585999999999999,17.445999999999987,20,2,6,17,87,2,7,68,4,0.5,29,4.25,6,L,0.22577011494252872,0.0915,0.22657142857142856,0.25655882352941173
39,4,8,0,3,18.665999999999986,19,80,49,51,79,59,32.45199999999998,0.427,1.0979999999999994,7.441999999999994,20,1,4,14,152,1,5,26,5,0.5,27,3.75,6,L,0.2135,0.427,0.2196,0.2862307692307692
39,5,9,0,6,11.589999999999991,19,55,1,5,3,12,12.19999999999999,0.061,7.990999999999993,4.940999999999996,20,1,15,14,60,1,31,20,6,1,72,6,6,L,0.2033333333333333,0.061,0.25777419354838704,0.24705
39,5,10,0,5,17.445999999999987,18,70,17,20,79,77,48.92199999999996,12.74899999999999,0.6709999999999998,0.488,20,19,2,5,215,53,2,5,5,0,18,4.5,6,L,0.2275441860465116,0.24054716981132074,0.3354999999999999,0.09759999999999999
40,1,1,0,2,29.035999999999976,14,119,56,57,53,52,29.340999999999976,3.2939999999999974,2.3179999999999983,0.061,16,6,7,1,121,13,11,1,4,1,48,4,6,L,0.2424876033057851,0.2533846153846153,0.21072727272727274,0.061
40,1,2,0,10,16.896999999999988,19,88,95,86,85,94,18.299999999999986,0.366,0.7929999999999997,0.6709999999999998,20,1,3,3,96,1,3,4,3,1,36,3,6,L,0.190625,0.366,0.2643333333333333,0.16775
40,2,3,0,8,24.21699999999998,17,122,119,10,114,109,25.25399999999998,1.463999999999999,0.183,0.7929999999999997,20,2,2,3,128,2,2,4,2,0.5,18,3,6,L,0.19729687499999998,0.7319999999999997,0.0915,0.19824999999999998
40,2,4,0,1,23.78999999999998,20,112,77,75,79,13,24.33899999999998,1.585999999999999,1.0979999999999994,2.8669999999999978,20,7,5,10,114,9,5,13,3,0.5,24,3.75,6,L,0.2135,0.17622222222222222,0.2196,0.22053846153846152
40,3,5,0,9,23.66799999999998,15,102,40,11,72,64,29.340999999999976,2.500999999999998,0.061,2.2569999999999983,20,9,1,8,131,12,1,11,4,0,19,4.75,6,L,0.2239770992366412,0.20841666666666667,0.061,0.20518181818181813
40,3,6,0,3,41.66299999999997,15,183,30,32,52,16,42.45599999999997,0.5489999999999999,9.027999999999993,0.122,17,3,16,1,186,3,42,1,5,0,20,5,6,L,0.228258064516129,0.183,0.21495238095238092,0.122
40,4,7,0,1,22.386999999999983,20,114,73,83,75,28,23.179999999999982,2.1349999999999985,2.683999999999998,5.123999999999996,20,7,5,13,119,8,6,20,3,0.5,23,3.5,6,L,0.19478991596638653,0.266875,0.4473333333333332,0.25619999999999993
40,4,8,0,2,30.621999999999975,20,141,52,60,58,13,34.891999999999975,0.305,0.061,4.879999999999996,20,2,1,9,157,2,1,18,4,0.5,30,4.5,6,L,0.2222420382165605,0.1525,0.061,0.2711111111111111
40,5,9,0,1,17.201999999999988,18,88,75,21,80,18,18.238999999999987,8.112999999999994,0.244,1.0369999999999995,20,17,2,4,92,37,2,5,3,0,18,4.5,6,L,0.19824999999999998,0.21927027027027024,0.122,0.20739999999999997
40,5,10,0,3,15.798999999999987,13,71,28,35,30,33,16.896999999999988,0.183,2.3789999999999982,1.8909999999999987,18,2,7,7,76,2,11,11,5,1,60,5,6,L,0.22232894736842101,0.0915,0.21627272727272726,0.1719090909090909
41,1,1,0,9,18.360999999999986,20,72,65,71,77,20,19.580999999999985,0.061,12.87099999999999,4.513999999999997,20,1,17,10,77,1,55,15,4,0,17,4.25,6,L,0.25429870129870125,0.061,0.2340181818181818,0.3009333333333333
41,1,2,0,8,24.76599999999998,19,128,112,114,37,109,27.327999999999978,3.4159999999999973,0.427,0.366,20,10,2,2,137,11,2,2,2,0.5,17,2.75,6,L,0.19947445255474452,0.3105454545454545,0.2135,0.183
41,2,3,0,7,13.11499999999999,18,66,15,16,19,43,17.262999999999987,2.3179999999999983,0.6099999999999999,2.3789999999999982,20,7,2,6,90,9,3,6,6,0.5,41,5.75,6,L,0.1918111111111111,0.25755555555555554,0.20333333333333334,0.3964999999999999
41,2,4,0,8,23.54599999999998,18,107,116,115,9,7,28.913999999999977,1.463999999999999,1.646999999999999,7.441999999999994,20,6,4,15,129,7,7,29,2,0,16,4,6,L,0.2241395348837209,0.20914285714285713,0.23528571428571426,0.2566206896551724
41,3,5,0,2,22.264999999999983,20,99,54,53,52,50,22.508999999999983,3.1719999999999975,1.3419999999999992,0.427,20,9,6,3,102,12,6,3,4,1,48,4,6,L,0.22067647058823525,0.2643333333333333,0.22366666666666665,0.14233333333333334
41,3,6,0,9,12.38299999999999,14,63,64,30,68,69,13.35899999999999,2.561999999999998,0.488,1.0369999999999995,19,3,5,4,68,5,5,4,4,0.5,29,4.25,6,L,0.19645588235294117,0.5123999999999999,0.09759999999999999,0.25925
41,4,7,0,6,23.301999999999982,15,109,6,11,8,46,23.362999999999982,1.8909999999999987,9.759999999999993,3.598999999999997,16,7,13,14,110,9,34,17,6,0.5,41,5.75,6,L,0.21239090909090907,0.2101111111111111,0.2870588235294117,0.21170588235294116
41,4,8,0,2,25.61999999999998,20,122,52,58,51,54,26.10799999999998,0.7929999999999997,4.269999999999997,1.2199999999999993,20,5,15,5,126,5,23,6,4,1,48,4,6,L,0.2072063492063492,0.1586,0.18565217391304348,0.20333333333333328
41,5,9,0,8,20.190999999999985,20,104,118,116,120,111,20.312999999999985,2.500999999999998,0.7319999999999998,2.500999999999998,20,10,3,7,105,14,3,8,2,1,24,2,6,L,0.19345714285714286,0.17864285714285713,0.244,0.31262499999999993
41,5,10,0,4,22.081999999999983,12,97,104,97,98,99,23.362999999999982,1.2809999999999993,3.598999999999997,0.305,17,6,8,2,102,7,13,2,2,1,24,2,6,L,0.22904901960784313,0.183,0.2768461538461538,0.1525
42,1,1,0,8,24.39999999999998,14,106,115,117,44,119,25.25399999999998,1.463999999999999,4.269999999999997,1.9519999999999986,20,6,13,9,113,7,22,9,2,0.5,17,2.75,6,L,0.2234867256637168,0.20914285714285713,0.19409090909090906,0.21688888888888888
42,1,2,0,4,14.700999999999988,19,68,3,8,35,72,34.220999999999975,0.122,0.122,1.585999999999999,20,1,2,6,148,1,2,6,2,0,21,5.25,6,L,0.23122297297297295,0.122,0.061,0.2643333333333333
42,2,3,0,4,8.112999999999994,13,41,102,101,3,55,10.979999999999992,2.3179999999999983,22.630999999999982,0.061,20,5,17,1,51,6,83,1,2,0,14,3.5,6,L,0.2152941176470588,0.38633333333333325,0.2726626506024096,0.061
42,2,4,0,8,51.97199999999996,18,210,109,115,116,23,52.39899999999996,1.0979999999999994,0.122,2.561999999999998,20,4,1,9,213,5,1,13,2,0.5,18,3,6,L,0.24600469483568074,0.21959999999999996,0.122,0.19707692307692307
42,3,5,0,7,17.506999999999987,19,86,13,17,22,20,18.238999999999987,5.428999999999996,1.2199999999999993,0.488,20,14,4,3,91,23,5,4,6,1,72,6,6,L,0.20042857142857143,0.23604347826086955,0.24399999999999997,0.122
42,3,6,0,6,29.035999999999976,13,140,11,6,9,7,29.157999999999976,2.9279999999999977,0.366,16.04299999999999,15,13,1,17,142,14,1,89,6,1,72,6,6,L,0.20533802816901406,0.20914285714285713,0.366,0.18025842696629213
42,4,7,0,9,24.70499999999998,19,116,6,66,69,7,52.52099999999996,0.183,0.061,0.244,20,2,1,1,224,2,1,1,4,0,20,5,6,L,0.23446874999999998,0.0915,0.061,0.244
42,4,8,0,2,19.397999999999985,14,97,55,52,20,60,20.190999999999985,2.1349999999999985,9.393999999999993,3.781999999999997,20,5,15,12,104,8,39,20,4,0.5,30,4.5,6,L,0.19414423076923076,0.266875,0.24087179487179486,0.1891
42,5,9,0,3,23.240999999999982,19,101,7,5,2,35,27.876999999999978,5.001999999999996,19.275999999999986,0.5489999999999999,20,14,18,2,120,20,74,2,5,0.5,41,5.75,6,L,0.2323083333333333,0.2501,0.2604864864864865,0.27449999999999997
42,5,10,0,5,26.10799999999998,20,110,47,38,45,46,26.47399999999998,0.122,2.3179999999999983,3.4159999999999973,20,1,9,10,114,1,13,14,5,1,60,5,6,L,0.2322280701754386,0.122,0.1783076923076923,0.244
43,1,1,0,9,20.861999999999984,19,97,68,65,71,72,22.386999999999983,1.8909999999999987,0.122,1.463999999999999,20,8,1,9,101,11,1,10,4,1,48,4,6,L,0.22165346534653463,0.1719090909090909,0.122,0.1464
43,1,2,0,4,21.654999999999983,15,104,106,98,100,55,22.691999999999982,0.305,4.574999999999997,0.9149999999999996,19,2,14,4,108,2,22,4,2,0.5,16,2.5,6,L,0.21011111111111108,0.1525,0.20795454545454542,0.22874999999999998
43,2,3,0,2,17.384999999999987,17,91,58,59,84,3,17.750999999999987,10.491999999999992,2.3789999999999982,2.500999999999998,19,17,9,13,93,38,10,16,4,0,17,4.25,6,L,0.1908709677419355,0.2761052631578947,0.2379,0.1563125
43,2,4,0,4,23.179999999999982,20,118,104,97,101,21,25.13199999999998,1.7079999999999989,0.488,2.439999999999998,20,6,2,6,128,8,2,9,2,0.5,18,3,6,L,0.19634374999999998,0.2135,0.244,0.2711111111111111
43,3,5,0,8,21.776999999999983,19,101,114,116,117,12,21.898999999999983,0.9149999999999996,0.366,2.0739999999999985,20,4,2,5,102,4,2,6,2,0.5,18,3,6,L,0.21469607843137253,0.22875,0.183,0.3456666666666666
43,3,6,0,4,20.922999999999984,16,100,17,63,68,97,41.90699999999997,0.183,1.3419999999999992,1.7079999999999989,20,2,7,5,179,2,8,9,2,0,16,4,6,L,0.23411731843575417,0.0915,0.16775,0.18977777777777777
43,4,7,0,5,19.336999999999986,19,89,102,106,4,56,48.31199999999996,5.001999999999996,4.086999999999997,0.061,20,17,12,1,188,24,18,1,5,0,14,3.5,6,L,0.25697872340425526,0.20841666666666667,0.22705555555555554,0.061
43,4,8,0,3,26.96199999999998,20,135,26,35,31,110,31.963999999999974,0.7319999999999998,0.061,16.28699999999999,20,4,1,16,153,4,1,53,5,0.5,32,4.25,6,L,0.20891503267973854,0.183,0.061,0.3073018867924528
43,5,9,0,3,27.815999999999978,20,129,33,28,1,7,27.998999999999977,13.11499999999999,1.585999999999999,1.0979999999999994,20,17,6,4,131,53,6,5,5,0,22,5.5,6,L,0.2137328244274809,0.2474528301886792,0.2643333333333333,0.2196
43,5,10,0,5,30.316999999999975,15,140,13,40,24,17,34.647999999999975,0.122,23.240999999999982,1.463999999999999,20,1,18,3,157,1,101,3,5,0.5,41,5.75,6,L,0.22068789808917194,0.122,0.2301089108910891,0.48799999999999977
44,1,1,0,8,17.872999999999987,19,80,116,120,112,21,20.434999999999985,4.879999999999996,2.2569999999999983,4.6969999999999965,20,15,11,9,89,23,13,20,2,0.5,18,3,6,L,0.22960674157303368,0.21217391304347827,0.17361538461538462,0.23484999999999998
44,1,2,0,4,26.53499999999998,19,117,104,99,97,3,27.815999999999978,1.524999999999999,1.0369999999999995,2.2569999999999983,20,6,6,5,123,6,8,6,2,0.5,18,3,6,L,0.2261463414634146,0.25416666666666665,0.129625,0.37616666666666654
44,2,3,0,8,20.068999999999985,19,86,115,112,116,50,20.922999999999984,0.305,11.589999999999991,0.6709999999999998,20,2,16,4,90,2,53,4,2,0.5,16,2.5,6,L,0.23247777777777776,0.1525,0.21867924528301885,0.16775
44,2,4,0,4,22.874999999999982,19,105,101,108,26,98,25.19299999999998,1.0979999999999994,0.183,0.427,20,6,1,1,112,6,1,1,2,0.5,17,2.75,6,L,0.22493749999999998,0.183,0.183,0.427
44,3,5,0,6,22.874999999999982,16,95,11,6,34,1,24.21699999999998,2.1959999999999984,4.452999999999997,2.0129999999999986,20,7,15,7,103,9,22,9,6,0.5,41,5.75,6,L,0.2351165048543689,0.244,0.20240909090909087,0.22366666666666665
44,3,6,0,9,12.74899999999999,17,73,119,13,118,19,34.342999999999975,10.918999999999992,0.427,0.305,20,19,3,1,167,48,3,1,4,0,16,4,6,L,0.20564670658682632,0.22747916666666665,0.14233333333333334,0.305
44,4,7,0,1,25.92499999999998,20,125,74,82,17,28,26.47399999999998,1.463999999999999,6.404999999999995,7.014999999999994,20,6,13,14,127,7,24,24,3,0,17,4.25,6,L,0.2084566929133858,0.20914285714285713,0.266875,0.2922916666666666
44,4,8,0,10,12.87099999999999,18,74,93,3,72,44,13.17599999999999,21.532999999999983,4.940999999999996,11.223999999999991,20,19,12,17,76,83,17,40,3,0,18,4.5,6,L,0.17336842105263156,0.259433734939759,0.29064705882352937,0.28059999999999996
44,5,9,0,9,25.37599999999998,19,117,66,29,23,116,25.43699999999998,8.783999999999994,0.9759999999999995,0.305,20,16,3,2,118,30,3,2,4,0,17,4.25,6,L,0.21556779661016948,0.29279999999999995,0.3253333333333333,0.1525
44,5,10,0,5,31.109999999999975,20,142,1,97,41,4,59.71899999999995,0.5489999999999999,0.183,3.781999999999997,20,2,1,13,249,2,1,17,5,0,19,4.75,6,L,0.2398353413654618,0.27449999999999997,0.183,0.2224705882352941
45,1,1,0,9,17.628999999999987,19,92,70,72,66,1,20.739999999999984,0.305,3.1719999999999975,0.6099999999999999,20,1,7,2,107,1,7,3,4,0.5,30,4.5,6,L,0.19383177570093457,0.305,0.453142857142857,0.20333333333333334
45,1,2,0,4,21.410999999999984,19,100,97,105,99,39,22.142999999999983,0.427,0.244,3.781999999999997,20,4,2,12,105,4,2,20,2,0.5,17,2.75,6,L,0.2108857142857143,0.10675,0.122,0.1891
45,2,3,0,2,15.371999999999987,18,84,55,100,1,5,17.994999999999987,37.51499999999997,0.6099999999999999,0.061,20,19,3,1,94,147,3,1,4,0,18,4.5,6,L,0.19143617021276593,0.255204081632653,0.20333333333333334,0.061
45,2,4,0,8,18.604999999999986,17,83,118,112,62,117,18.665999999999986,8.417999999999994,1.7079999999999989,0.7319999999999998,18,14,4,3,84,39,6,3,2,0.5,16,2.5,6,L,0.2222142857142857,0.2158461538461538,0.2846666666666666,0.244
45,3,5,0,7,18.787999999999986,19,76,14,22,19,17,21.410999999999984,0.6709999999999998,1.646999999999999,0.061,20,7,8,1,88,7,9,1,6,1,72,6,6,L,0.24330681818181815,0.09585714285714285,0.183,0.061
45,3,6,0,5,42.02899999999997,17,174,43,48,42,40,44.346999999999966,0.6709999999999998,0.9149999999999996,0.122,20,4,4,1,182,4,4,1,5,1,60,5,6,L,0.24366483516483514,0.16775,0.22875,0.122
45,4,7,0,5,40.99199999999997,15,188,79,16,65,73,45.993999999999964,24.88799999999998,0.061,0.061,20,19,1,1,207,86,1,1,5,0,16,4,6,L,0.22219323671497582,0.28939534883720924,0.061,0.061
45,4,8,0,6,21.227999999999984,20,105,7,4,8,27,21.532999999999983,5.428999999999996,0.305,3.598999999999997,20,14,1,10,107,22,1,15,6,0.5,41,5.75,6,L,0.2012429906542056,0.24677272727272725,0.305,0.2399333333333333
45,5,9,0,7,11.528999999999991,16,55,13,19,16,24,11.650999999999991,0.061,9.332999999999993,0.122,17,1,13,2,56,1,31,2,6,1,72,6,6,L,0.20805357142857142,0.061,0.30106451612903223,0.061
45,5,10,0,6,31.109999999999975,11,139,6,2,11,9,32.45199999999998,1.8909999999999987,2.0129999999999986,6.953999999999994,17,7,8,14,145,8,9,27,6,1,72,6,6,L,0.22380689655172412,0.236375,0.22366666666666665,0.25755555555555554
46,1,1,0,10,31.048999999999975,19,136,7,9,69,95,48.37299999999996,0.183,0.427,0.9149999999999996,20,2,3,2,221,2,3,2,3,0,19,4.75,6,L,0.21888235294117644,0.0915,0.14233333333333334,0.4574999999999999
46,1,2,0,8,17.750999999999987,20,81,116,117,111,115,18.421999999999986,3.1109999999999975,3.9649999999999967,0.8539999999999996,20,6,13,5,84,7,23,5,2,1,24,2,6,L,0.2193095238095238,0.4444285714285713,0.1723913043478261,0.1708
46,2,3,0,4,32.02499999999998,18,147,37,97,101,102,35.440999999999974,1.1589999999999994,2.1349999999999985,7.014999999999994,20,2,7,14,160,2,8,35,2,0.5,17,2.75,6,L,0.22150624999999996,0.5794999999999997,0.266875,0.2004285714285714
46,2,4,0,8,12.44399999999999,18,69,119,110,116,113,13.11499999999999,0.6709999999999998,4.147999999999997,0.061,20,4,11,1,71,5,14,1,2,1,24,2,6,L,0.1847183098591549,0.13419999999999999,0.2962857142857142,0.061
46,3,5,0,10,18.116999999999987,19,84,88,93,61,63,18.177999999999987,1.7689999999999988,12.13899999999999,0.183,20,6,17,1,85,9,55,1,3,0,14,3.5,6,L,0.21385882352941174,0.19655555555555554,0.22070909090909088,0.183
46,3,6,0,2,19.824999999999985,16,78,55,59,54,53,22.874999999999982,0.427,1.0979999999999994,5.123999999999996,20,3,6,13,98,3,7,22,4,1,48,4,6,L,0.23341836734693874,0.14233333333333334,0.15685714285714286,0.2329090909090909
46,4,7,0,8,30.987999999999975,17,158,109,120,63,12,32.939999999999976,9.027999999999993,1.1589999999999994,0.366,20,17,5,3,169,39,5,4,2,0,14,3.5,6,L,0.19491124260355028,0.23148717948717945,0.2318,0.0915
46,4,8,0,7,18.116999999999987,19,99,14,24,15,87,19.275999999999986,2.439999999999998,0.061,0.9759999999999995,20,7,1,3,104,9,1,3,6,0.5,39,5.25,6,L,0.18534615384615383,0.2711111111111111,0.061,0.3253333333333333
46,5,9,0,1,43.736999999999966,18,188,83,79,113,84,46.054999999999964,1.2809999999999993,1.0369999999999995,2.3789999999999982,20,4,2,6,199,4,2,8,3,0.5,20,2.75,6,L,0.2314321608040201,0.32025,0.5184999999999998,0.29737499999999994
46,5,10,0,4,37.20999999999997,19,178,101,104,97,86,37.27099999999997,3.598999999999997,0.183,1.0979999999999994,20,9,1,5,179,13,1,5,2,0.5,15,2.25,6,L,0.20821787709497205,0.2768461538461538,0.183,0.2196
47,1,1,0,8,20.190999999999985,19,112,119,112,13,120,22.264999999999983,0.244,5.7949999999999955,0.9759999999999995,20,1,12,4,122,1,26,5,2,0.5,18,3,6,L,0.1825,0.244,0.22288461538461538,0.19519999999999998
47,1,2,0,5,31.841999999999974,19,126,44,65,39,12,32.87899999999998,5.428999999999996,0.7319999999999998,1.646999999999999,20,12,4,5,132,20,5,6,5,0,20,5,6,L,0.2490833333333333,0.27144999999999997,0.1464,0.27449999999999997
47,2,3,0,10,18.787999999999986,19,85,91,88,86,20,19.092999999999986,3.1109999999999975,1.524999999999999,8.478999999999994,20,12,5,15,87,13,5,41,3,0.5,24,3.75,6,L,0.2194597701149425,0.2393076923076923,0.30499999999999994,0.20680487804878048
47,2,4,0,3,29.340999999999976,19,124,33,26,28,61,35.135999999999974,2.9889999999999977,2.3789999999999982,2.9279999999999977,20,9,7,5,144,13,8,7,5,0.5,34,4.75,6,L,0.24399999999999997,0.2299230769230769,0.29737499999999994,0.41828571428571415
47,3,5,0,1,26.96199999999998,19,131,81,76,83,36,27.327999999999978,1.8299999999999987,0.427,1.4029999999999991,20,8,2,5,135,9,2,5,3,0.5,23,3.5,6,L,0.20242962962962963,0.2033333333333333,0.2135,0.28059999999999996
47,3,6,0,5,11.95599999999999,17,58,41,61,47,46,25.31499999999998,0.244,0.9149999999999996,1.7689999999999988,20,4,6,8,107,4,7,8,5,0.5,34,4.75,6,L,0.23658878504672895,0.061,0.1307142857142857,0.221125
47,4,7,0,9,15.737999999999987,15,78,15,25,68,67,37.27099999999997,0.6099999999999999,2.1349999999999985,0.305,20,3,8,3,173,3,9,3,4,0,19,4.75,6,L,0.2154393063583815,0.20333333333333334,0.2372222222222222,0.10166666666666667
47,4,8,0,2,10.491999999999992,19,60,59,1,57,4,13.907999999999989,5.245999999999996,2.1959999999999984,1.585999999999999,20,11,7,5,72,23,8,5,4,0,20,5,6,L,0.19316666666666665,0.2280869565217391,0.27449999999999997,0.3172
