Subject,Round,Phase,afterbreak,Schema,Schema_RT,Schema_OB,Schema_AS,Cho_1,Cho_2,Cho_3,Cho_4,RT_1,RT_2,RT_3,RT_4,OB_1,OB_2,OB_3,OB_4,AS_1,AS_2,AS_3,AS_4,schema_payoff,AC,performance,payoff,breakR,type,dwellmean_1,dwellmean_2,dwellmean_3,dwellmean_4
1,1,1,0,8,27.266999999999978,15,135,117,111,120,118,27.632999999999978,0.8539999999999996,0.9759999999999995,4.7579999999999965,17,4,5,13,137,4,5,18,2,1,24,2,6,L,0.20170072992700727,0.2135,0.19519999999999998,0.2643333333333333
1,1,2,0,7,20.129999999999985,15,86,14,16,23,15,22.935999999999982,1.463999999999999,0.244,11.101999999999991,20,7,1,16,97,10,1,43,6,1,72,6,6,L,0.23645360824742265,0.1464,0.244,0.25818604651162785
1,2,3,0,10,54.655999999999956,17,253,96,86,93,33,59.04799999999995,0.061,0.6099999999999999,3.3549999999999973,20,1,3,7,278,1,3,14,3,0.5,23,3.5,6,L,0.21240287769784172,0.061,0.20333333333333334,0.23964285714285713
1,2,4,0,1,16.896999999999988,19,75,74,77,76,2,17.811999999999987,1.2809999999999993,2.0739999999999985,0.9759999999999995,20,5,8,2,80,5,9,2,3,0.5,24,3.75,6,L,0.22265,0.2562,0.23044444444444442,0.48799999999999993
1,3,5,0,7,9.027999999999993,14,44,13,19,16,26,9.088999999999993,4.330999999999997,5.550999999999996,7.441999999999994,15,11,16,15,45,16,28,31,6,0.5,41,5.75,6,L,0.20197777777777776,0.27068749999999997,0.19824999999999998,0.24006451612903223
1,3,6,0,8,45.871999999999964,15,201,117,111,110,57,49.47099999999996,0.8539999999999996,0.122,3.4159999999999973,20,5,1,7,215,6,1,13,2,0.5,16,2.5,6,L,0.23009767441860463,0.14233333333333334,0.122,0.26276923076923075
1,4,7,0,9,72.16300000000089,15,316,12,66,11,47,75.8840000000009,1.0369999999999995,1.2809999999999993,4.513999999999997,20,4,5,12,331,4,7,21,4,0,21,5.25,6,L,0.22925679758308154,0.25925,0.183,0.21495238095238092
1,4,8,0,3,24.09499999999998,19,107,29,32,30,112,26.96199999999998,1.2809999999999993,0.427,11.162999999999991,20,5,4,16,118,6,4,53,5,0.5,32,4.25,6,L,0.22849152542372878,0.2135,0.10675,0.21062264150943394
1,5,9,0,5,20.617999999999984,16,86,37,43,49,57,22.874999999999982,3.2939999999999974,15.554999999999987,3.0499999999999976,20,11,18,10,98,14,68,16,5,0,18,4.5,6,L,0.23341836734693874,0.23528571428571426,0.22874999999999998,0.190625
1,5,10,0,7,6.587999999999995,9,26,15,23,27,66,8.417999999999994,4.6969999999999965,2.3789999999999982,2.0739999999999985,15,14,10,7,34,30,13,7,6,0,21,5.25,6,L,0.24758823529411764,0.15656666666666666,0.183,0.29628571428571426
2,1,1,0,7,31.292999999999974,20,155,13,18,84,54,31.414999999999974,0.427,10.674999999999992,3.2329999999999974,20,2,13,12,156,2,35,17,6,0,19,4.75,6,L,0.20137820512820512,0.2135,0.30499999999999994,0.19017647058823528
2,1,2,0,8,25.98599999999998,20,119,119,3,113,116,29.096999999999976,2.2569999999999983,1.0369999999999995,0.183,20,9,5,3,136,10,6,3,2,0.5,18,3,6,L,0.21394852941176468,0.22569999999999996,0.17283333333333334,0.061
2,2,3,0,9,18.543999999999986,18,93,72,68,20,66,21.471999999999984,0.427,0.6099999999999999,1.2809999999999993,20,3,3,4,103,3,4,5,4,0.5,30,4.5,6,L,0.20846601941747572,0.14233333333333334,0.1525,0.25619999999999993
2,2,4,0,5,11.284999999999991,18,65,1,76,60,37,36.66099999999997,0.183,0.183,0.305,20,2,1,3,183,2,1,3,5,0,18,4.5,6,L,0.2003333333333333,0.0915,0.183,0.10166666666666667
2,3,5,0,6,15.920999999999987,19,83,1,6,4,5,18.055999999999987,2.439999999999998,2.561999999999998,3.2329999999999974,20,10,12,6,95,10,12,9,6,1,72,6,6,L,0.19006315789473682,0.244,0.2135,0.35922222222222217
2,3,6,0,7,52.76499999999996,17,239,14,21,22,19,52.88699999999996,1.585999999999999,0.061,7.624999999999994,19,8,1,14,241,12,1,37,6,1,72,6,6,L,0.21944813278008296,0.13216666666666665,0.061,0.20608108108108106
2,4,7,0,9,24.39999999999998,19,123,15,69,29,68,56.912999999999954,0.366,0.8539999999999996,0.183,20,2,4,2,262,2,4,2,4,0,19,4.75,6,L,0.21722519083969463,0.183,0.2135,0.0915
2,4,8,0,2,33.000999999999976,16,155,56,54,49,41,35.013999999999974,0.6709999999999998,0.8539999999999996,6.648999999999995,20,4,5,14,163,5,5,28,4,0.5,29,4.25,6,L,0.21480981595092025,0.13419999999999999,0.1708,0.23746428571428568
2,5,9,0,5,28.364999999999977,15,126,40,43,41,69,29.340999999999976,1.0369999999999995,2.0129999999999986,9.637999999999993,17,5,5,14,128,5,7,38,5,0.5,34,4.75,6,L,0.22922656249999998,0.2074,0.2875714285714285,0.2536315789473684
2,5,10,0,3,36.29499999999997,14,152,26,34,36,96,36.90499999999997,6.587999999999995,1.463999999999999,2.683999999999998,18,12,5,10,156,21,5,14,5,0.5,33,4.5,6,L,0.23657051282051278,0.31371428571428567,0.29279999999999995,0.1917142857142857
3,1,1,0,10,31.658999999999974,18,145,89,86,35,49,32.57399999999998,1.8909999999999987,0.7319999999999998,7.685999999999994,20,9,4,14,149,9,4,31,3,0,15,3.75,5,L,0.2186174496644295,0.21011111111111108,0.183,0.2479354838709677
3,1,2,0,5,14.151999999999989,18,66,48,43,74,5,18.543999999999986,2.3179999999999983,6.8929999999999945,2.0129999999999986,20,12,14,9,84,18,25,9,5,0,19,4.75,5,L,0.22076190476190474,0.12877777777777777,0.27571999999999997,0.22366666666666665
3,2,3,0,9,19.641999999999985,20,93,66,72,38,45,24.15599999999998,0.9149999999999996,4.635999999999997,0.061,20,5,13,1,114,5,24,1,4,0,18,4.5,5,L,0.21189473684210525,0.183,0.19316666666666665,0.061
3,2,4,0,2,22.935999999999982,18,106,53,50,51,4,27.998999999999977,3.0499999999999976,0.7929999999999997,1.7689999999999988,20,15,7,3,128,17,7,5,4,0.5,30,4.5,5,L,0.2187421875,0.17941176470588235,0.11328571428571428,0.35379999999999995
3,3,5,0,4,33.183999999999976,15,143,52,102,101,98,34.464999999999975,2.2569999999999983,0.6709999999999998,0.305,17,9,2,4,146,9,2,4,2,0.5,16,2.5,5,L,0.23606164383561642,0.25077777777777777,0.33549999999999996,0.07625
3,3,6,0,5,30.560999999999975,19,131,61,71,63,92,44.712999999999965,8.722999999999994,0.9149999999999996,5.367999999999996,20,17,4,13,182,40,4,22,5,0.5,27,3.75,5,L,0.24567582417582415,0.21807499999999996,0.22875,0.24399999999999994
3,4,7,0,3,23.54599999999998,19,124,27,23,13,15,26.29099999999998,70.27200000000067,15.798999999999987,0.061,20,19,17,1,131,275,71,1,5,0.5,41,5.75,5,L,0.20069465648854962,0.2555345454545454,0.22252112676056335,0.061
3,4,8,0,10,45.871999999999964,15,195,2,49,41,98,295.60600000002137,0.061,0.061,0.7319999999999998,20,1,1,3,1223,1,1,3,3,0,17,4.25,5,L,0.24170564186426816,0.061,0.061,0.24399999999999997
4,1,1,0,4,10.125999999999992,12,48,102,105,98,21,11.040999999999991,2.439999999999998,0.061,7.319999999999994,19,11,1,13,55,15,1,33,2,0.5,18,3,6,L,0.20074545454545453,0.16266666666666665,0.061,0.2218181818181818
4,1,2,0,8,18.421999999999986,18,90,117,38,114,112,20.556999999999984,3.3549999999999973,2.0129999999999986,0.7319999999999998,20,10,9,4,101,17,10,4,2,0.5,17,2.75,6,L,0.20353465346534652,0.19735294117647056,0.2013,0.183
4,2,3,0,10,15.249999999999988,18,74,91,89,94,88,17.201999999999988,0.061,0.061,5.062999999999996,20,1,1,13,82,1,1,21,3,1,36,3,6,L,0.20978048780487804,0.061,0.061,0.24109523809523806
4,2,4,0,1,38.61299999999997,16,160,75,73,74,10,40.56499999999997,0.183,2.744999999999998,3.476999999999997,20,2,9,11,171,2,11,16,3,0.5,24,3.75,6,L,0.2372222222222222,0.0915,0.24954545454545454,0.2173125
4,3,5,0,1,23.362999999999982,20,115,1,9,57,54,41.11399999999997,7.807999999999994,0.061,0.061,20,17,1,1,181,36,1,1,3,0,20,5,6,L,0.2271491712707182,0.21688888888888888,0.061,0.061
4,3,6,0,8,16.835999999999988,19,78,113,21,14,18,20.251999999999985,5.7339999999999955,3.720999999999997,22.020999999999983,20,12,13,17,90,23,22,90,2,0.5,38,5,6,L,0.2250222222222222,0.2493043478260869,0.16913636363636364,0.24467777777777774
4,4,7,0,3,20.007999999999985,16,100,29,32,96,20,21.227999999999984,0.122,14.578999999999988,10.735999999999992,20,1,18,17,111,1,69,43,5,0,19,4.75,6,L,0.19124324324324324,0.122,0.21128985507246376,0.24967441860465114
4,4,8,0,2,17.018999999999988,17,81,50,57,60,49,18.177999999999987,0.244,0.122,5.855999999999995,20,2,1,11,86,2,1,22,4,1,48,4,6,L,0.2113720930232558,0.122,0.122,0.26618181818181813
4,5,9,0,5,22.569999999999983,20,112,45,37,41,43,23.60699999999998,0.244,0.061,6.343999999999995,20,1,1,12,119,1,1,29,5,1,60,5,6,L,0.1983781512605042,0.244,0.061,0.21875862068965515
4,5,10,0,3,10.857999999999992,18,62,33,36,85,96,13.48099999999999,5.062999999999996,12.56599999999999,1.9519999999999986,20,8,17,8,70,18,52,11,5,0,16,4,6,L,0.19258571428571428,0.28127777777777774,0.24165384615384614,0.17745454545454545
5,1,1,0,2,19.397999999999985,18,98,58,59,7,4,21.837999999999983,1.2809999999999993,1.646999999999999,6.343999999999995,20,6,10,13,106,7,13,19,4,0,20,5,6,L,0.20601886792452828,0.183,0.1266923076923077,0.33389473684210524
5,1,2,0,9,21.837999999999983,18,99,65,13,68,86,37.51499999999997,7.807999999999994,0.061,0.427,20,17,1,3,166,35,1,3,4,0,17,4.25,6,L,0.22599397590361445,0.22308571428571425,0.061,0.14233333333333334
5,2,3,0,10,27.327999999999978,20,125,87,23,91,92,27.510999999999978,12.56599999999999,0.183,1.2809999999999993,20,14,1,7,126,41,1,7,3,0.5,24,3.75,6,L,0.2183412698412698,0.3064878048780487,0.183,0.183
5,2,4,0,1,13.724999999999989,19,70,1,78,73,76,39.83299999999997,0.8539999999999996,0.061,1.0979999999999994,20,5,1,5,164,5,1,5,3,0.5,24,3.75,6,L,0.24288414634146338,0.1708,0.061,0.2196
5,3,5,0,9,30.011999999999976,18,130,69,2,89,99,31.109999999999975,8.600999999999994,3.3549999999999973,1.7079999999999989,20,16,12,5,133,39,16,6,4,0,15,3.75,6,L,0.2339097744360902,0.22053846153846152,0.20968749999999997,0.2846666666666667
5,3,6,0,5,19.214999999999986,19,109,39,42,56,45,22.691999999999982,0.183,7.441999999999994,0.7929999999999997,20,1,15,4,122,1,32,5,5,0.5,34,4.75,6,L,0.186,0.183,0.23256249999999998,0.1586
5,4,7,0,4,20.434999999999985,18,79,99,103,104,101,23.97299999999998,0.061,1.524999999999999,1.8299999999999987,20,1,8,7,90,1,10,7,2,1,24,2,6,L,0.26636666666666664,0.061,0.1525,0.2614285714285714
5,4,8,0,2,24.88799999999998,18,95,58,53,55,92,26.59599999999998,2.500999999999998,4.818999999999996,6.770999999999995,20,9,16,17,106,12,22,41,4,0.5,27,3.75,6,L,0.25090566037735845,0.20841666666666664,0.21904545454545454,0.16514634146341464
5,5,9,0,3,23.54599999999998,20,118,35,2,29,32,23.85099999999998,14.822999999999988,2.0739999999999985,0.7929999999999997,20,18,7,5,119,63,7,5,5,0.5,36,5.25,6,L,0.20042857142857143,0.23528571428571426,0.2962857142857142,0.1586
5,5,10,0,10,31.536999999999974,17,150,90,13,17,19,35.135999999999974,26.04699999999998,1.3419999999999992,0.305,20,18,6,2,167,106,6,2,3,0.5,39,5.25,6,L,0.2103952095808383,0.2457264150943396,0.22366666666666665,0.1525
6,1,1,0,2,22.630999999999982,16,98,52,51,49,7,22.996999999999982,3.2939999999999974,0.6099999999999999,3.720999999999997,19,8,4,9,101,13,4,11,4,0.5,30,4.5,6,L,0.22769306930693067,0.2533846153846154,0.1525,0.3382727272727272
6,1,2,0,7,38.36899999999997,17,159,22,21,19,14,40.25999999999997,5.428999999999996,2.744999999999998,1.2809999999999993,20,12,5,3,170,20,6,3,6,1,72,6,6,L,0.23682352941176468,0.27144999999999997,0.4574999999999999,0.42699999999999994
6,2,3,0,4,15.798999999999987,19,82,97,100,108,62,17.567999999999987,10.247999999999992,1.0369999999999995,1.7689999999999988,20,19,4,8,89,45,4,9,2,0.5,16,2.5,6,L,0.19739325842696628,0.22773333333333332,0.25925,0.19655555555555554
6,2,4,0,8,37.88099999999997,20,172,113,117,110,51,38.73499999999997,3.2329999999999974,2.8669999999999978,0.6099999999999999,20,8,12,1,176,15,19,1,2,0.5,16,2.5,6,L,0.22008522727272725,0.21553333333333333,0.15089473684210525,0.6099999999999999
6,3,5,0,8,22.508999999999983,20,116,1,112,2,117,37.14899999999997,1.524999999999999,1.0979999999999994,0.8539999999999996,20,3,4,5,179,3,4,5,2,0,16,4,6,L,0.207536312849162,0.5083333333333332,0.27449999999999997,0.1708
6,3,6,0,7,15.798999999999987,18,84,23,18,24,92,15.981999999999987,2.683999999999998,2.744999999999998,18.543999999999986,19,11,7,15,85,15,10,65,6,0.5,39,5.25,6,L,0.1880235294117647,0.17893333333333333,0.27449999999999997,0.2852923076923076
6,4,7,0,7,13.968999999999989,20,79,16,23,24,41,14.029999999999989,3.720999999999997,7.8689999999999936,0.427,20,13,12,2,80,20,28,2,6,0.5,41,5.75,6,L,0.175375,0.18605,0.2810357142857142,0.2135
6,4,8,0,6,24.70499999999998,18,128,4,12,11,76,25.00999999999998,6.770999999999995,3.1719999999999975,6.648999999999995,19,13,10,13,129,29,13,29,6,0.5,39,5.25,6,L,0.19387596899224804,0.23348275862068962,0.24399999999999997,0.2292758620689655
6,5,9,0,3,17.689999999999987,19,79,33,120,65,119,17.750999999999987,27.998999999999977,3.598999999999997,16.40899999999999,20,17,13,16,80,101,16,57,5,0,13,3.25,6,L,0.2218875,0.2772178217821782,0.22493749999999998,0.28787719298245606
6,5,10,0,10,21.288999999999984,13,94,96,93,89,39,21.471999999999984,0.8539999999999996,4.513999999999997,12.99299999999999,15,4,11,17,96,4,23,51,3,0.5,23,3.5,6,L,0.22366666666666665,0.2135,0.19626086956521738,0.2547647058823529
7,1,1,0,3,22.569999999999983,18,105,27,34,59,54,25.98599999999998,1.7689999999999988,1.3419999999999992,0.7929999999999997,20,7,2,6,121,7,2,6,5,0,18,4.5,6,L,0.21476033057851238,0.25271428571428567,0.6709999999999996,0.13216666666666665
7,1,2,0,10,28.852999999999977,20,115,91,89,8,63,30.499999999999975,1.7689999999999988,0.122,2.439999999999998,20,6,1,9,122,6,1,13,3,0,16,4,6,L,0.24999999999999997,0.2948333333333333,0.122,0.18769230769230769
7,2,3,0,10,35.318999999999974,18,163,13,15,89,90,41.35799999999997,1.0369999999999995,0.9149999999999996,0.183,20,2,3,1,183,3,4,1,3,0,18,4.5,6,L,0.22599999999999998,0.3456666666666666,0.22875,0.183
7,2,4,0,4,17.689999999999987,20,93,1,106,105,77,30.98799999999998,0.244,0.061,1.463999999999999,20,2,1,10,157,2,1,10,2,0,13,3.25,6,L,0.19737579617834394,0.122,0.061,0.1464
7,3,5,0,2,39.22299999999997,19,174,52,58,47,9,39.89399999999997,0.366,3.476999999999997,1.7689999999999988,20,1,11,6,177,1,16,9,4,0,19,4.75,6,L,0.22538983050847455,0.366,0.21731249999999996,0.19655555555555554
7,3,6,0,3,45.322999999999965,20,196,30,26,78,73,45.627999999999965,5.428999999999996,0.122,0.183,20,13,1,1,198,24,1,1,5,0,16,4,6,L,0.23044444444444442,0.22620833333333332,0.122,0.183
7,4,7,0,5,15.310999999999988,18,81,15,17,64,86,53.98499999999996,0.061,0.6099999999999999,0.061,20,1,2,1,241,1,2,1,5,0,19,4.75,6,L,0.22400414937759333,0.061,0.30499999999999994,0.061
7,4,8,0,8,18.787999999999986,20,91,109,60,36,77,21.288999999999984,2.500999999999998,6.709999999999995,2.8669999999999978,20,5,14,9,101,6,30,10,2,0,14,3.5,6,L,0.21078217821782178,0.4168333333333333,0.22366666666666665,0.28669999999999995
7,5,9,0,10,28.120999999999977,20,123,91,86,95,41,28.242999999999977,0.183,1.8909999999999987,3.720999999999997,20,1,6,11,125,1,6,13,3,0.5,23,3.5,6,L,0.22594399999999998,0.183,0.3151666666666666,0.2862307692307692
7,5,10,0,4,21.532999999999983,18,104,100,107,73,34,21.898999999999983,7.441999999999994,1.7079999999999989,2.1349999999999985,20,14,3,5,107,27,3,5,2,0,12,3,6,L,0.20466355140186915,0.2756296296296296,0.5693333333333331,0.42699999999999994
8,1,1,0,6,14.212999999999989,20,73,4,5,9,11,26.96199999999998,1.463999999999999,0.122,0.6709999999999998,20,8,1,5,135,12,1,5,6,1,72,6,6,L,0.1997185185185185,0.122,0.122,0.13419999999999999
8,1,2,0,3,36.78299999999997,15,170,35,23,22,18,39.46699999999997,1.0979999999999994,10.369999999999992,3.1109999999999975,20,3,16,9,179,3,41,12,5,0.5,41,5.75,6,L,0.22048603351955307,0.36599999999999994,0.25292682926829263,0.25925
8,2,3,0,5,25.49799999999998,18,112,40,37,46,47,26.96199999999998,1.3419999999999992,0.6099999999999999,1.0369999999999995,20,4,2,4,116,4,3,4,5,1,60,5,6,L,0.2324310344827586,0.33549999999999996,0.20333333333333334,0.25925
8,2,4,0,8,25.07099999999998,18,124,116,119,1,27,26.22999999999998,0.244,14.761999999999988,0.7929999999999997,20,2,16,4,131,2,48,4,2,0,15,3.75,6,L,0.20022900763358778,0.122,0.3075416666666666,0.19824999999999998
8,3,5,0,8,45.566999999999965,13,216,109,110,117,115,45.688999999999965,3.3549999999999973,0.366,2.8669999999999978,14,7,2,9,217,7,2,13,2,1,24,2,6,L,0.21054838709677418,0.4792857142857142,0.183,0.22053846153846152
8,3,6,0,4,11.77299999999999,19,62,99,104,97,4,11.83399999999999,0.427,0.5489999999999999,1.0979999999999994,20,4,3,3,63,4,3,4,2,0.5,18,3,6,L,0.18784126984126984,0.10675,0.183,0.2744999999999999
8,4,7,0,8,18.909999999999986,19,104,112,117,16,18,21.471999999999984,2.9279999999999977,13.724999999999989,1.4029999999999991,20,10,16,7,116,13,59,7,2,0,16,4,6,L,0.18510344827586206,0.2252307692307692,0.23262711864406777,0.20042857142857143
8,4,8,0,5,44.712999999999965,20,195,47,38,44,56,47.27499999999996,2.1959999999999984,1.3419999999999992,12.01699999999999,20,8,5,16,212,8,5,41,5,0.5,34,4.75,6,L,0.2229952830188679,0.27449999999999997,0.26839999999999997,0.29309756097560974
8,5,9,0,4,38.49099999999997,10,148,98,100,99,22,39.10099999999997,2.9889999999999977,0.061,6.404999999999995,12,10,1,14,150,13,1,32,2,0.5,18,3,6,L,0.2606733333333333,0.2299230769230769,0.061,0.20015624999999998
8,5,10,0,1,37.27099999999997,19,153,74,73,38,11,37.33199999999997,1.1589999999999994,3.781999999999997,3.1719999999999975,20,4,13,9,154,5,20,13,3,0,17,4.25,6,L,0.2424155844155844,0.2318,0.1891,0.24399999999999997
9,1,1,0,8,39.10099999999997,19,192,120,119,17,57,40.99199999999997,0.9149999999999996,8.051999999999994,0.061,20,5,18,1,200,5,44,1,2,0,14,3.5,6,L,0.20495999999999998,0.183,0.183,0.061
9,1,2,0,6,25.31499999999998,19,117,35,5,7,11,26.71799999999998,7.990999999999993,0.7929999999999997,4.6969999999999965,20,16,4,13,124,31,5,20,6,0.5,41,5.75,6,L,0.21546774193548385,0.2577741935483871,0.1586,0.23484999999999998
9,2,3,0,5,46.90899999999996,14,190,37,11,8,5,47.21399999999996,4.269999999999997,2.0739999999999985,23.301999999999982,17,11,6,17,193,22,13,112,5,0.5,41,5.75,6,L,0.2446321243523316,0.1940909090909091,0.15953846153846155,0.20805357142857142
9,2,4,0,4,12.68799999999999,17,53,104,97,108,103,13.11499999999999,1.2809999999999993,0.7929999999999997,1.463999999999999,20,6,4,2,56,8,4,2,2,1,24,2,6,L,0.23419642857142856,0.160125,0.19824999999999998,0.7319999999999995
9,3,5,0,5,17.323999999999987,16,92,41,40,59,86,20.861999999999984,0.122,3.842999999999997,6.099999999999995,20,1,9,12,108,1,13,19,5,0,17,4.25,6,L,0.19316666666666665,0.122,0.29561538461538456,0.3210526315789473
9,3,6,0,8,41.11399999999997,15,198,120,118,119,64,41.47999999999997,0.122,3.3549999999999973,1.0979999999999994,17,1,13,1,200,1,19,1,2,0.5,16,2.5,6,L,0.20739999999999997,0.122,0.17657894736842106,1.0979999999999994
9,4,7,0,9,18.787999999999986,19,105,68,61,40,3,20.434999999999985,1.585999999999999,20.739999999999984,4.513999999999997,20,7,16,14,113,9,93,20,4,0,19,4.75,6,L,0.18084070796460175,0.17622222222222222,0.22301075268817203,0.22569999999999998
9,4,8,0,7,13.35899999999999,19,55,13,15,58,17,13.907999999999989,0.061,1.0979999999999994,2.9889999999999977,20,1,1,6,60,1,2,8,6,0.5,40,5.5,6,L,0.23179999999999998,0.061,0.5489999999999998,0.37362499999999993
9,5,9,0,10,14.456999999999988,20,79,91,93,85,4,14.517999999999988,0.122,2.744999999999998,18.299999999999986,20,2,8,16,80,2,11,83,3,0.5,24,3.75,6,L,0.181475,0.061,0.24954545454545454,0.22048192771084335
9,5,10,0,4,23.179999999999982,19,107,14,106,19,45,83.81399999999994,0.061,0.244,0.061,20,1,3,1,344,1,3,1,2,0,19,4.75,6,L,0.24364534883720929,0.061,0.08133333333333333,0.061
10,1,1,0,5,11.650999999999991,17,46,2,45,5,81,34.159999999999975,0.122,0.122,0.122,20,1,1,1,149,1,1,1,5,0,20,5,6,L,0.22926174496644294,0.122,0.122,0.122
10,1,2,0,4,37.14899999999997,19,175,60,108,107,104,49.28799999999996,0.122,0.7929999999999997,0.061,20,2,6,1,237,2,7,1,2,0.5,16,2.5,6,L,0.20796624472573838,0.061,0.11328571428571428,0.061
10,2,3,0,1,37.14899999999997,20,171,82,74,31,32,37.94199999999997,2.9279999999999977,6.465999999999995,3.4159999999999973,20,12,12,7,176,17,22,11,3,0,16,4,6,L,0.21557954545454544,0.17223529411764704,0.29390909090909084,0.31054545454545446
10,2,4,0,2,45.688999999999965,18,196,59,57,9,47,46.298999999999964,2.8669999999999978,2.805999999999998,2.0739999999999985,20,10,9,9,199,18,10,11,4,0,19,4.75,6,L,0.23265829145728642,0.15927777777777777,0.28059999999999996,0.18854545454545454
10,3,5,0,4,24.64399999999998,19,121,105,108,102,101,25.00999999999998,0.305,1.524999999999999,1.7689999999999988,20,2,5,8,122,2,6,8,2,1,24,2,6,L,0.205,0.1525,0.25416666666666665,0.221125
10,3,6,0,10,19.031999999999986,19,80,89,95,91,88,20.922999999999984,0.305,1.8909999999999987,0.122,20,1,7,1,89,1,8,1,3,1,36,3,6,L,0.2350898876404494,0.305,0.23637499999999997,0.122
10,4,7,0,10,13.11499999999999,19,68,94,116,117,120,13.35899999999999,10.430999999999992,10.125999999999992,3.476999999999997,20,18,18,14,70,43,47,20,3,0.5,15,2.25,6,L,0.19084285714285715,0.2425813953488372,0.21544680851063827,0.17385
10,4,8,0,2,43.43199999999997,13,184,59,51,43,39,46.542999999999964,2.9279999999999977,4.818999999999996,2.2569999999999983,20,7,13,6,205,8,21,9,4,0,18,4.5,6,L,0.22703902439024387,0.3659999999999999,0.22947619047619044,0.25077777777777777
10,5,9,0,3,52.33799999999996,15,217,11,109,64,31,333.9140000000131,0.061,0.122,1.585999999999999,20,1,2,8,1358,1,2,8,5,0,17,4.25,6,L,0.2458865979381443,0.061,0.061,0.19824999999999998
10,5,10,0,7,12.32199999999999,19,53,24,13,14,16,12.87099999999999,5.855999999999995,1.585999999999999,6.282999999999995,20,14,4,13,56,21,4,26,6,1,72,6,6,L,0.22983928571428572,0.2788571428571428,0.3964999999999999,0.24165384615384614
11,1,1,0,6,21.349999999999984,19,106,8,11,1,5,25.00999999999998,2.805999999999998,10.735999999999992,0.488,20,8,17,2,122,10,42,2,6,1,72,6,5,L,0.205,0.28059999999999996,0.2556190476190476,0.244
11,1,2,0,1,31.536999999999974,17,150,80,17,16,78,33.610999999999976,12.19999999999999,2.8669999999999978,0.122,20,16,9,1,164,46,9,1,3,0,18,4.5,5,L,0.2049451219512195,0.2652173913043478,0.3185555555555555,0.122
11,2,3,0,7,23.54599999999998,19,111,17,16,55,34,23.60699999999998,15.798999999999987,0.122,0.122,20,16,2,1,112,62,2,1,6,0,21,5.25,5,L,0.2107767857142857,0.2548225806451613,0.061,0.122
11,2,4,0,6,24.27799999999998,14,105,8,10,9,38,24.33899999999998,8.661999999999994,13.724999999999989,0.6099999999999999,15,16,16,3,106,44,41,3,6,0.5,41,5.75,5,L,0.2296132075471698,0.19686363636363635,0.3347560975609756,0.20333333333333334
11,3,5,0,3,35.806999999999974,18,161,36,35,10,34,38.55199999999997,0.427,12.01699999999999,1.2809999999999993,20,1,18,10,175,1,48,10,5,0.5,36,5.25,5,L,0.22029714285714283,0.427,0.25035416666666666,0.1281
11,3,6,0,10,27.14499999999998,19,120,95,89,87,55,28.852999999999977,0.244,0.305,6.8929999999999945,20,1,2,15,130,1,2,33,3,0.5,22,3.25,5,L,0.22194615384615382,0.244,0.1525,0.20887878787878786
11,4,7,0,1,46.725999999999964,20,191,78,73,80,31,46.78699999999996,0.183,7.014999999999994,1.1589999999999994,20,2,15,4,192,2,34,4,3,0.5,23,3.5,5,L,0.24368229166666663,0.0915,0.20632352941176468,0.28974999999999995
11,4,8,0,8,24.58299999999998,18,122,110,113,57,42,24.64399999999998,1.4029999999999991,16.774999999999988,2.622999999999998,19,5,18,11,123,5,77,16,2,0,13,3.25,5,L,0.20035772357723575,0.28059999999999996,0.21785714285714283,0.16393749999999999
12,1,1,0,7,26.41299999999998,19,121,13,19,17,41,27.02299999999998,11.528999999999991,3.781999999999997,1.2199999999999993,20,16,11,3,125,51,16,3,6,0.5,41,5.75,6,L,0.216184,0.22605882352941173,0.23637499999999995,0.40666666666666657
12,1,2,0,10,28.242999999999977,16,132,86,90,87,12,28.974999999999977,0.366,0.183,8.356999999999994,20,3,2,13,137,3,2,34,3,0.5,24,3.75,6,L,0.2114963503649635,0.122,0.0915,0.2457941176470588
12,2,3,0,8,14.578999999999988,17,66,120,116,112,117,15.920999999999987,0.427,1.585999999999999,2.8669999999999978,20,3,7,8,76,3,9,11,2,1,24,2,6,L,0.20948684210526314,0.14233333333333334,0.17622222222222222,0.2606363636363636
12,2,4,0,6,17.933999999999987,19,78,5,6,11,65,17.994999999999987,5.7339999999999955,1.585999999999999,2.622999999999998,20,12,7,7,79,20,8,9,6,0.5,40,5.5,6,L,0.22778481012658225,0.28669999999999995,0.19824999999999998,0.29144444444444434
12,3,5,0,5,9.515999999999993,18,55,38,41,42,43,11.040999999999991,0.061,0.061,12.62699999999999,20,1,1,16,63,1,1,53,5,1,60,5,6,L,0.17525396825396825,0.061,0.061,0.23824528301886788
12,3,6,0,8,41.11399999999997,14,176,117,110,118,29,41.72399999999997,1.646999999999999,1.9519999999999986,2.1959999999999984,17,5,8,8,179,6,13,10,2,0.5,17,2.75,6,L,0.23309497206703908,0.27449999999999997,0.15015384615384614,0.21959999999999996
12,4,7,0,6,35.013999999999974,14,139,7,3,4,5,41.05299999999997,5.306999999999996,1.2199999999999993,0.6099999999999999,20,13,5,3,163,20,5,5,6,1,72,6,6,L,0.25185889570552145,0.26535,0.244,0.122
12,4,8,0,9,31.963999999999974,18,155,15,16,35,17,69.41799999999995,3.720999999999997,0.061,0.061,20,12,1,1,318,19,1,1,4,0.5,41,5.75,6,L,0.2182955974842767,0.19584210526315787,0.061,0.061
12,5,9,0,4,35.135999999999974,18,148,103,105,99,34,39.40599999999997,0.6709999999999998,0.061,0.488,20,4,1,1,158,4,1,1,2,0.5,17,2.75,6,L,0.2494050632911392,0.16775,0.061,0.488
12,5,10,0,5,56.546999999999954,15,276,48,41,114,120,56.607999999999954,0.122,5.916999999999995,6.038999999999995,16,1,9,13,277,1,19,27,5,0,14,3.5,6,L,0.2043610108303249,0.122,0.31142105263157893,0.22366666666666665
13,1,1,0,1,20.556999999999984,14,83,81,78,82,76,20.861999999999984,1.0979999999999994,0.6099999999999999,0.488,17,3,3,4,86,3,3,4,3,1,36,3,6,L,0.24258139534883716,0.36599999999999994,0.20333333333333334,0.122
13,1,2,0,4,18.116999999999987,19,91,103,105,107,108,18.543999999999986,0.7319999999999998,1.7079999999999989,3.1719999999999975,20,4,7,11,96,4,9,17,2,1,24,2,6,L,0.19316666666666665,0.183,0.18977777777777777,0.18658823529411764
13,2,3,0,9,42.39499999999997,13,200,11,69,61,67,45.627999999999965,1.8909999999999987,0.244,0.122,20,9,1,1,212,12,1,1,4,0.5,30,4.5,6,L,0.2152264150943396,0.15758333333333333,0.244,0.122
13,2,4,0,2,33.549999999999976,16,143,56,54,49,51,33.793999999999976,0.427,8.844999999999994,0.6709999999999998,18,3,17,4,145,3,47,4,4,1,48,4,6,L,0.2330620689655172,0.14233333333333334,0.18819148936170213,0.16775
13,3,5,0,1,37.20999999999997,13,168,81,75,78,18,38.42999999999997,1.3419999999999992,0.122,9.149999999999993,20,7,2,16,176,9,2,32,3,0.5,24,3.75,6,L,0.2183522727272727,0.1491111111111111,0.061,0.28593749999999996
13,3,6,0,5,55.204999999999956,14,245,41,10,48,66,55.631999999999955,1.7689999999999988,3.4159999999999973,6.099999999999995,17,5,9,15,249,6,13,27,5,0,20,5,6,L,0.22342168674698792,0.2948333333333333,0.26276923076923075,0.2259259259259259
13,4,7,0,6,21.715999999999983,16,117,2,47,37,72,21.776999999999983,7.197999999999994,2.9279999999999977,1.0369999999999995,17,12,7,1,118,29,7,2,6,0,20,5,6,L,0.18455084745762712,0.24820689655172412,0.4182857142857142,0.5184999999999997
13,4,8,0,7,16.530999999999988,10,67,15,18,19,26,17.689999999999987,1.1589999999999994,0.366,10.003999999999992,15,5,2,16,72,5,2,49,6,0.5,41,5.75,6,L,0.2456944444444444,0.2318,0.183,0.20416326530612244
13,5,9,0,2,12.13899999999999,11,57,58,94,13,56,21.593999999999983,4.513999999999997,6.343999999999995,2.0739999999999985,20,14,16,6,90,23,34,9,4,0,17,4.25,6,L,0.2399333333333333,0.19626086956521738,0.18658823529411764,0.23044444444444442
13,5,10,0,6,21.288999999999984,20,100,47,3,11,9,27.02299999999998,1.3419999999999992,1.3419999999999992,0.183,20,6,2,2,124,7,2,2,6,0.5,41,5.75,6,L,0.2179274193548387,0.1917142857142857,0.6709999999999998,0.0915
14,1,1,0,1,17.628999999999987,19,69,77,31,81,76,18.665999999999986,0.9759999999999995,0.122,6.404999999999995,20,1,1,16,73,1,2,28,3,0.5,23,3.5,6,L,0.2556986301369863,0.9759999999999995,0.061,0.22874999999999998
14,1,2,0,10,28.608999999999977,19,113,96,93,95,87,28.730999999999977,0.061,0.061,6.526999999999995,20,1,1,14,114,1,1,28,3,1,36,3,6,L,0.25202631578947365,0.061,0.061,0.23310714285714285
14,2,3,0,7,39.10099999999997,18,177,15,22,51,29,40.07699999999997,0.122,5.916999999999995,1.463999999999999,20,1,15,5,181,1,27,5,6,0,21,5.25,6,L,0.2214198895027624,0.122,0.21914814814814812,0.29279999999999995
14,2,4,0,8,23.85099999999998,18,91,2,120,118,116,25.98599999999998,0.122,0.5489999999999999,1.4029999999999991,20,1,3,9,95,1,3,9,2,0.5,18,3,6,L,0.27353684210526313,0.122,0.183,0.15588888888888888
14,3,5,0,1,25.13199999999998,19,123,81,76,75,18,26.35199999999998,0.061,5.855999999999995,1.463999999999999,20,1,13,7,129,1,18,10,3,0.5,24,3.75,6,L,0.20427906976744184,0.061,0.32533333333333325,0.1464
14,3,6,0,6,20.739999999999984,16,87,9,6,10,32,21.593999999999983,5.184999999999996,10.796999999999992,0.061,18,14,17,1,89,26,53,1,6,0.5,41,5.75,6,L,0.24262921348314603,0.1994230769230769,0.20371698113207545,0.061
14,4,7,0,8,36.11199999999997,17,183,119,120,112,21,36.35599999999997,0.122,2.0129999999999986,1.0369999999999995,18,1,6,3,184,1,8,4,2,0.5,18,3,6,L,0.1975869565217391,0.122,0.251625,0.25925
14,4,8,0,6,18.116999999999987,16,88,3,2,57,95,18.177999999999987,1.7689999999999988,6.038999999999995,3.4159999999999973,17,8,13,8,89,8,21,14,6,0,19,4.75,6,L,0.20424719101123592,0.221125,0.28757142857142853,0.24399999999999997
14,5,9,0,5,31.658999999999974,12,139,37,39,43,10,32.02499999999998,5.123999999999996,1.2809999999999993,18.787999999999986,13,11,4,16,140,20,4,82,5,0.5,36,5.25,6,L,0.22874999999999998,0.2562,0.32025,0.22912195121951218
14,5,10,0,3,42.45599999999997,18,175,30,28,22,19,42.88299999999997,5.062999999999996,0.6099999999999999,5.123999999999996,20,12,4,14,179,21,4,24,5,0,22,5.5,6,L,0.23956983240223462,0.24109523809523808,0.1525,0.2135
15,1,1,0,4,24.58299999999998,20,127,100,105,62,6,26.96199999999998,2.3789999999999982,3.2939999999999974,4.025999999999997,20,7,12,13,142,11,17,20,2,0,14,3.5,6,L,0.1898732394366197,0.21627272727272726,0.19376470588235295,0.2013
15,1,2,0,1,21.288999999999984,20,108,73,74,29,59,22.752999999999982,0.061,8.173999999999994,0.6099999999999999,20,1,12,2,115,1,34,2,3,0,15,3.75,6,L,0.19785217391304347,0.061,0.24041176470588232,0.305
15,2,3,0,6,24.15599999999998,15,108,1,10,63,33,27.08399999999998,4.330999999999997,1.524999999999999,0.427,20,11,5,4,123,17,5,4,6,0,21,5.25,6,L,0.22019512195121949,0.2547647058823529,0.30499999999999994,0.10675
15,2,4,0,8,32.81799999999998,18,144,115,46,41,17,33.488999999999976,9.027999999999993,3.781999999999997,3.3549999999999973,20,15,10,8,146,37,16,10,2,0,18,4.5,6,L,0.2293767123287671,0.24399999999999997,0.23637499999999997,0.3354999999999999
15,3,5,0,3,37.63699999999997,20,170,36,70,28,14,38.06399999999997,2.3789999999999982,3.0499999999999976,5.123999999999996,20,6,10,11,172,8,16,20,5,0,20,5,6,L,0.22130232558139531,0.29737499999999994,0.190625,0.2562
15,3,6,0,2,20.068999999999985,20,87,53,54,60,9,20.373999999999985,0.366,1.1589999999999994,6.282999999999995,20,2,6,15,90,2,7,29,4,0.5,30,4.5,6,L,0.22637777777777776,0.183,0.16557142857142856,0.2166551724137931
15,4,7,0,2,21.593999999999983,20,100,26,1,25,10,38.06399999999997,0.305,0.427,0.5489999999999999,20,1,2,2,177,1,2,2,4,0,22,5.5,6,L,0.2150508474576271,0.305,0.2135,0.27449999999999997
15,4,8,0,9,23.48499999999998,20,103,17,71,68,61,24.94899999999998,0.305,0.244,0.5489999999999999,20,2,1,2,107,2,1,2,4,0.5,30,4.5,6,L,0.23316822429906542,0.1525,0.244,0.27449999999999997
15,5,9,0,4,63.25699999999995,12,257,108,12,97,103,64.29399999999995,1.2809999999999993,0.305,0.7319999999999998,16,1,1,4,263,1,1,4,2,0.5,18,3,6,L,0.24446387832699618,1.2809999999999993,0.305,0.183
15,5,10,0,9,73.74900000000108,12,317,67,64,30,65,74.35900000000107,3.476999999999997,0.122,0.9759999999999995,15,8,1,4,320,10,1,5,4,0.5,29,4.25,6,L,0.23237187499999998,0.34769999999999995,0.122,0.19519999999999996
16,1,1,0,8,23.66799999999998,20,121,118,120,111,29,24.21699999999998,0.122,2.0739999999999985,1.0979999999999994,20,1,7,2,123,1,7,2,2,0.5,17,2.75,6,L,0.1968861788617886,0.122,0.29628571428571426,0.5489999999999999
16,1,2,0,4,15.249999999999988,18,72,107,98,106,100,15.798999999999987,1.2199999999999993,0.8539999999999996,2.683999999999998,20,6,2,10,75,8,2,14,2,1,24,2,6,L,0.21065333333333333,0.1525,0.4269999999999999,0.1917142857142857
16,2,3,0,7,31.353999999999974,16,165,21,20,13,76,31.414999999999974,4.452999999999997,5.306999999999996,1.4029999999999991,17,10,12,5,166,13,24,5,6,0.5,39,5.25,6,L,0.18924698795180722,0.34253846153846146,0.221125,0.28059999999999996
16,2,4,0,9,11.040999999999991,17,55,69,67,2,64,11.101999999999991,3.0499999999999976,9.637999999999993,0.061,18,10,14,1,56,16,40,1,4,0.5,30,4.5,6,L,0.19824999999999998,0.190625,0.24094999999999997,0.061
16,3,5,0,1,50.93499999999996,15,210,76,77,79,3,50.99599999999996,7.563999999999994,1.8299999999999987,5.367999999999996,16,16,9,12,211,32,9,19,3,0.5,24,3.75,6,L,0.24168720379146916,0.23637499999999997,0.20333333333333334,0.2825263157894737
16,3,6,0,10,34.464999999999975,18,180,87,85,19,16,36.84399999999997,2.9889999999999977,4.269999999999997,5.489999999999996,20,4,10,14,188,5,16,21,3,0,18,4.5,6,L,0.19597872340425532,0.5977999999999998,0.266875,0.2614285714285714
16,4,7,0,8,10.613999999999992,15,47,116,111,117,18,11.345999999999991,0.6099999999999999,5.428999999999996,8.783999999999994,18,3,11,13,50,3,20,41,2,0.5,18,3,6,L,0.22691999999999998,0.20333333333333334,0.27144999999999997,0.2142439024390244
16,4,8,0,1,36.11199999999997,15,164,80,79,76,1,36.35599999999997,1.2809999999999993,0.061,8.844999999999994,16,6,1,15,165,7,1,40,3,0.5,24,3.75,6,L,0.22033939393939392,0.183,0.061,0.221125
16,5,9,0,6,29.401999999999976,19,154,5,1,63,2,30.804999999999975,1.585999999999999,0.183,8.112999999999994,20,4,2,16,157,4,2,33,6,0.5,40,5.5,6,L,0.19621019108280255,0.39649999999999996,0.0915,0.24584848484848482
16,5,10,0,7,34.769999999999975,20,157,23,17,15,20,35.318999999999974,0.305,4.818999999999996,0.122,20,2,9,1,161,2,14,1,6,1,72,6,6,L,0.2193726708074534,0.1525,0.34421428571428564,0.122
17,1,1,0,8,25.19299999999998,20,117,117,116,70,120,27.449999999999978,0.122,2.8669999999999978,1.7079999999999989,20,2,6,5,127,2,6,7,2,0.5,16,2.5,6,L,0.21614173228346456,0.061,0.4778333333333332,0.24399999999999997
17,1,2,0,4,25.74199999999998,20,113,99,101,105,103,26.29099999999998,2.0739999999999985,3.3549999999999973,0.061,20,6,9,1,116,9,13,1,2,1,24,2,6,L,0.22664655172413792,0.23044444444444442,0.25807692307692304,0.061
17,2,3,0,3,17.445999999999987,19,85,34,26,11,4,20.312999999999985,0.9149999999999996,15.066999999999988,3.659999999999997,20,3,17,12,104,4,58,13,5,0,22,5.5,6,L,0.19531730769230768,0.22875,0.25977586206896547,0.2815384615384615
17,2,4,0,5,27.998999999999977,20,125,37,44,48,45,28.059999999999977,0.5489999999999999,5.428999999999996,1.0369999999999995,20,1,14,6,126,1,26,6,5,1,60,5,6,L,0.22269841269841267,0.5489999999999999,0.2088076923076923,0.17283333333333334
17,3,5,0,1,35.501999999999974,14,159,75,79,80,83,36.05099999999997,0.061,3.3549999999999973,1.8909999999999987,16,1,10,5,161,1,15,6,3,1,36,3,6,L,0.22391925465838508,0.061,0.22366666666666662,0.3151666666666666
17,3,6,0,3,25.80299999999998,14,108,35,29,27,25,27.693999999999978,2.0739999999999985,0.6099999999999999,0.488,18,7,2,2,113,8,2,2,5,1,60,5,6,L,0.2450796460176991,0.25925,0.30499999999999994,0.244
17,4,7,0,2,24.82699999999998,13,119,60,55,50,56,25.80299999999998,1.463999999999999,1.2809999999999993,2.683999999999998,19,5,6,5,126,5,7,10,4,1,48,4,6,L,0.20478571428571427,0.29279999999999995,0.18299999999999997,0.26839999999999997
17,4,8,0,6,22.874999999999982,13,106,1,6,10,113,22.935999999999982,1.9519999999999986,17.811999999999987,2.9889999999999977,14,9,17,12,107,10,77,21,6,0.5,38,5,6,L,0.21435514018691587,0.19519999999999998,0.2313246753246753,0.14233333333333334
17,5,9,0,6,13.663999999999989,14,64,8,11,9,41,13.724999999999989,2.744999999999998,5.001999999999996,9.149999999999993,15,10,12,15,65,12,24,39,6,0.5,41,5.75,6,L,0.21115384615384614,0.22874999999999995,0.20841666666666664,0.2346153846153846
17,5,10,0,3,46.542999999999964,17,199,34,61,71,62,49.28799999999996,17.140999999999988,5.428999999999996,1.8299999999999987,20,18,17,5,207,66,26,5,5,0.5,29,4.25,6,L,0.23810628019323668,0.25971212121212117,0.2088076923076923,0.36599999999999994
18,1,1,0,6,35.135999999999974,19,165,8,51,7,4,36.29499999999997,5.916999999999995,3.1719999999999975,2.1959999999999984,20,14,10,12,169,28,12,16,6,0.5,40,5.5,5,L,0.21476331360946743,0.21132142857142855,0.2643333333333333,0.13724999999999998
18,1,2,0,1,34.891999999999975,20,168,24,75,29,80,37.33199999999997,1.0369999999999995,0.305,0.244,20,4,2,1,176,6,2,1,3,0,17,4.25,5,L,0.21211363636363634,0.17283333333333334,0.1525,0.244
18,2,3,0,4,15.310999999999988,17,82,100,101,102,81,15.981999999999987,0.366,1.8299999999999987,14.578999999999988,20,2,7,17,85,2,7,62,2,0.5,15,2.25,5,L,0.1880235294117647,0.183,0.2614285714285714,0.23514516129032256
18,2,4,0,10,22.142999999999983,20,105,90,88,86,14,22.203999999999983,1.2809999999999993,1.7689999999999988,4.635999999999997,20,7,5,12,106,7,5,14,3,0.5,24,3.75,5,L,0.2094716981132075,0.183,0.35379999999999995,0.33114285714285713
18,3,5,0,7,30.621999999999975,19,137,15,24,17,21,30.682999999999975,4.025999999999997,2.1959999999999984,0.061,20,12,7,1,138,17,10,1,6,1,72,6,5,L,0.2223405797101449,0.23682352941176468,0.2196,0.061
18,3,6,0,6,9.759999999999993,18,57,4,6,7,9,21.349999999999984,0.183,2.3789999999999982,1.3419999999999992,20,1,10,6,109,1,11,6,6,1,72,6,5,L,0.19587155963302752,0.183,0.21627272727272726,0.22366666666666662
18,4,7,0,7,63.19599999999995,15,267,18,22,21,17,64.84299999999995,2.9889999999999977,1.3419999999999992,4.635999999999997,20,15,7,13,277,21,8,24,6,1,72,6,5,L,0.23409025270758121,0.14233333333333334,0.16775,0.19316666666666665
18,4,8,0,2,21.044999999999984,16,108,1,3,51,58,65.26999999999995,56.912999999999954,1.3419999999999992,0.305,20,19,4,2,281,242,5,2,4,0,20,5,5,L,0.23227758007117436,0.2351776859504132,0.26839999999999997,0.1525
19,1,1,0,5,40.32099999999997,19,183,44,37,22,17,40.99199999999997,4.391999999999997,1.3419999999999992,1.0979999999999994,20,11,4,5,185,18,4,6,5,0,22,5.5,6,L,0.22157837837837835,0.244,0.33549999999999996,0.183
19,1,2,0,8,39.40599999999997,20,178,113,117,119,12,39.52799999999997,1.463999999999999,0.183,0.6099999999999999,20,6,2,2,179,7,2,2,2,0.5,18,3,6,L,0.22082681564245807,0.20914285714285713,0.0915,0.30499999999999994
19,2,3,0,4,17.384999999999987,19,91,97,78,8,63,18.726999999999986,11.83399999999999,1.0369999999999995,2.500999999999998,20,16,4,11,98,45,4,14,2,0,15,3.75,6,L,0.19109183673469388,0.26297777777777775,0.25925,0.17864285714285713
19,2,4,0,5,21.105999999999984,19,99,48,47,37,42,22.447999999999983,0.305,2.3789999999999982,0.366,20,2,11,2,103,2,14,2,5,1,60,5,6,L,0.2179417475728155,0.1525,0.16992857142857143,0.183
19,3,5,0,8,72.10200000000088,12,277,112,34,115,118,73.32200000000088,3.0499999999999976,0.7319999999999998,1.0979999999999994,20,7,5,7,287,8,6,8,2,0.5,17,2.75,6,L,0.25547735191637627,0.3812499999999999,0.122,0.13724999999999998
19,3,6,0,7,13.968999999999989,17,73,19,21,17,53,15.249999999999988,1.8299999999999987,7.380999999999994,2.3179999999999983,20,7,16,5,78,8,30,7,6,0.5,40,5.5,6,L,0.1955128205128205,0.22875,0.2460333333333333,0.331142857142857
19,4,7,0,5,33.976999999999975,11,138,48,47,40,43,34.403999999999975,2.0739999999999985,0.5489999999999999,1.524999999999999,13,5,1,5,140,7,1,5,5,1,60,5,6,L,0.2457428571428571,0.2962857142857142,0.5489999999999999,0.30499999999999994
19,4,8,0,7,17.445999999999987,20,84,18,21,14,23,18.726999999999986,2.0739999999999985,5.123999999999996,3.476999999999997,20,9,10,11,93,13,17,13,6,1,72,6,6,L,0.20136559139784946,0.15953846153846155,0.3014117647058823,0.2674615384615384
19,5,9,0,2,24.64399999999998,18,122,104,39,4,41,48.55599999999996,3.659999999999997,8.844999999999994,0.5489999999999999,20,14,16,4,225,19,29,4,4,0,18,4.5,6,L,0.21580444444444444,0.1926315789473684,0.30499999999999994,0.13724999999999998
19,5,10,0,3,13.35899999999999,15,57,27,30,36,23,14.578999999999988,1.0979999999999994,3.476999999999997,9.332999999999993,20,6,11,16,62,6,14,38,5,0.5,36,5.25,6,L,0.23514516129032254,0.183,0.2483571428571428,0.24560526315789472
20,1,1,0,1,39.34499999999997,16,167,83,84,9,64,40.74799999999997,0.5489999999999999,1.463999999999999,1.646999999999999,20,3,5,7,174,3,5,8,3,0,16,4,6,L,0.234183908045977,0.183,0.29279999999999995,0.205875
20,1,2,0,4,21.654999999999983,17,103,97,104,100,56,22.386999999999983,0.6099999999999999,2.622999999999998,1.585999999999999,20,4,5,7,108,4,5,10,2,0.5,16,2.5,6,L,0.20728703703703702,0.1525,0.5245999999999998,0.1586
20,2,3,0,5,25.31499999999998,18,127,48,40,37,12,28.608999999999977,0.9149999999999996,0.061,9.210999999999993,20,4,1,12,143,5,1,43,5,0.5,36,5.25,6,L,0.20006293706293704,0.183,0.061,0.21420930232558139
20,2,4,0,1,37.45399999999997,20,156,83,80,14,116,41.11399999999997,0.061,6.648999999999995,2.9889999999999977,20,1,16,7,173,1,26,9,3,0,14,3.5,6,L,0.23765317919075143,0.061,0.2557307692307692,0.3321111111111111
20,3,5,0,5,12.80999999999999,18,60,40,73,17,58,14.273999999999988,7.319999999999994,17.811999999999987,0.427,20,13,18,5,65,25,76,5,5,0,18,4.5,6,L,0.2196,0.29279999999999995,0.23436842105263156,0.0854
20,3,6,0,10,29.340999999999976,17,134,85,7,96,94,31.475999999999974,1.646999999999999,5.977999999999995,2.9889999999999977,20,6,12,12,144,8,27,15,3,0.5,24,3.75,6,L,0.21858333333333332,0.20587499999999997,0.22140740740740739,0.19926666666666665
20,4,7,0,7,18.787999999999986,17,100,16,14,18,40,18.848999999999986,0.7929999999999997,26.10799999999998,0.244,18,5,17,1,101,5,100,1,6,0.5,41,5.75,6,L,0.18662376237623762,0.1586,0.26108,0.244
20,4,8,0,3,20.617999999999984,17,103,28,34,93,29,20.678999999999984,1.0369999999999995,3.0499999999999976,3.0499999999999976,18,4,10,8,104,6,11,14,5,0.5,33,4.5,6,L,0.19883653846153845,0.17283333333333334,0.2772727272727272,0.21785714285714283
20,5,9,0,1,32.45199999999998,19,151,15,84,120,13,33.671999999999976,2.1959999999999984,10.796999999999992,4.940999999999996,20,5,16,14,157,7,46,29,3,0,17,4.25,6,L,0.2144713375796178,0.3137142857142856,0.2347173913043478,0.17037931034482756
20,5,10,0,4,16.835999999999988,19,96,106,86,38,12,18.177999999999987,3.0499999999999976,10.430999999999992,1.524999999999999,20,10,17,9,104,13,44,9,2,0,16,4,6,L,0.17478846153846153,0.2346153846153846,0.2370681818181818,0.1694444444444444
21,1,1,0,10,33.976999999999975,18,130,96,86,92,91,34.037999999999975,0.8539999999999996,1.8909999999999987,0.9149999999999996,19,2,6,5,131,4,8,5,3,1,36,3,6,L,0.25983206106870227,0.2135,0.23637499999999997,0.183
21,1,2,0,6,20.129999999999985,17,94,10,11,2,41,20.617999999999984,0.244,2.500999999999998,6.282999999999995,20,1,9,12,97,1,13,26,6,0.5,41,5.75,6,L,0.21255670103092783,0.244,0.19238461538461538,0.24165384615384614
21,2,3,0,9,30.133999999999975,19,146,65,64,67,41,30.438999999999975,0.122,2.0739999999999985,5.611999999999996,20,1,8,10,149,2,11,20,4,0.5,29,4.25,6,L,0.20428859060402682,0.061,0.18854545454545454,0.28059999999999996
21,2,4,0,8,22.996999999999982,18,105,111,116,14,109,23.118999999999982,4.147999999999997,15.432999999999987,0.061,19,12,18,1,106,17,76,1,2,0.5,18,3,6,L,0.21810377358490565,0.24399999999999997,0.2030657894736842,0.061
21,3,5,0,3,58.86499999999995,13,274,34,25,29,11,60.14599999999995,0.061,0.5489999999999999,7.319999999999994,20,1,4,14,282,1,4,30,5,0.5,36,5.25,6,L,0.21328368794326238,0.061,0.13724999999999998,0.24399999999999997
21,3,6,0,7,27.998999999999977,17,127,23,21,116,15,28.059999999999977,3.2939999999999974,8.905999999999993,2.9889999999999977,18,10,15,10,128,13,46,14,6,0.5,38,5,6,L,0.21921875,0.2533846153846154,0.1936086956521739,0.2135
21,4,7,0,1,33.244999999999976,17,145,84,81,79,3,34.342999999999975,0.244,4.6969999999999965,4.940999999999996,20,2,15,12,149,2,23,19,3,0.5,24,3.75,6,L,0.23048993288590602,0.122,0.20421739130434782,0.2600526315789473
21,4,8,0,7,29.340999999999976,19,141,13,15,95,16,29.401999999999976,3.4159999999999973,3.9649999999999967,17.628999999999987,20,12,10,16,142,21,21,74,6,0.5,39,5.25,6,L,0.207056338028169,0.16266666666666665,0.1888095238095238,0.23822972972972972
21,5,9,0,3,19.275999999999986,18,85,28,25,34,29,20.739999999999984,0.244,1.4029999999999991,0.061,20,2,7,1,91,3,7,1,5,1,60,5,6,L,0.2279120879120879,0.08133333333333333,0.20042857142857143,0.061
21,5,10,0,9,24.82699999999998,14,125,61,63,13,42,25.19299999999998,1.7079999999999989,17.628999999999987,1.0369999999999995,16,6,17,6,128,8,69,6,4,0,19,4.75,6,L,0.19682031249999998,0.21349999999999997,0.2554927536231884,0.17283333333333334
22,1,1,0,10,11.77299999999999,17,55,54,14,85,93,27.81599999999998,7.075999999999994,1.1589999999999994,0.6709999999999998,20,17,7,6,120,27,8,7,3,0,16,4,6,L,0.23179999999999998,0.262074074074074,0.144875,0.09585714285714285
22,1,2,0,4,13.29799999999999,18,71,100,36,70,1,14.578999999999988,17.933999999999987,1.524999999999999,1.2199999999999993,20,18,7,4,77,81,8,5,2,0,17,4.25,6,L,0.18933766233766233,0.22140740740740739,0.190625,0.24399999999999997
22,2,3,0,10,23.66799999999998,20,102,89,35,100,86,25.61999999999998,8.234999999999994,0.244,0.305,20,16,2,1,109,34,2,1,3,0,13,3.25,6,L,0.235045871559633,0.24220588235294116,0.122,0.305
22,2,4,0,2,45.993999999999964,13,195,52,51,44,16,46.78699999999996,0.8539999999999996,5.672999999999996,2.1349999999999985,18,3,12,8,200,3,26,11,4,0,19,4.75,6,L,0.23393499999999998,0.2846666666666667,0.21819230769230769,0.1940909090909091
22,3,5,0,1,36.29499999999997,17,144,19,80,76,16,37.45399999999997,0.183,0.305,0.9149999999999996,20,3,1,1,147,3,1,1,3,0,18,4.5,6,L,0.2547891156462585,0.061,0.305,0.9149999999999996
22,3,6,0,10,15.188999999999988,20,61,85,100,51,99,17.262999999999987,16.22599999999999,7.624999999999994,1.585999999999999,20,17,15,6,71,69,38,7,3,0,11,2.75,6,L,0.24314084507042252,0.23515942028985506,0.2006578947368421,0.22657142857142853
22,4,7,0,1,20.434999999999985,20,112,80,74,77,75,22.691999999999982,0.244,0.6709999999999998,1.1589999999999994,20,1,6,4,122,1,6,4,3,1,36,3,6,L,0.186,0.244,0.11183333333333333,0.28975
22,4,8,0,6,21.654999999999983,18,112,5,10,102,12,21.715999999999983,0.305,6.8929999999999945,1.7689999999999988,19,1,14,6,113,1,31,6,6,0.5,38,5,6,L,0.19217699115044246,0.305,0.2223548387096774,0.2948333333333333
22,5,9,0,1,23.057999999999982,20,112,77,84,100,48,25.31499999999998,0.122,7.258999999999994,1.2199999999999993,20,1,14,7,121,1,30,7,3,0,13,3.25,6,L,0.20921487603305783,0.122,0.24196666666666664,0.1742857142857143
22,5,10,0,6,20.556999999999984,14,94,1,58,52,8,20.617999999999984,9.454999999999993,3.659999999999997,3.720999999999997,15,15,11,11,95,41,20,14,6,0,20,5,6,L,0.2170315789473684,0.23060975609756096,0.183,0.2657857142857143
23,1,1,0,7,28.730999999999977,20,127,24,16,61,70,31.597999999999974,5.306999999999996,1.1589999999999994,0.244,20,14,5,1,141,26,6,1,6,0,20,5,6,L,0.22409929078014182,0.20411538461538462,0.19316666666666663,0.244
23,1,2,0,6,38.36899999999997,12,170,1,54,6,30,38.42999999999997,3.476999999999997,3.4159999999999973,2.3179999999999983,13,13,9,5,171,18,14,8,6,0,21,5.25,6,L,0.22473684210526315,0.19316666666666665,0.24399999999999997,0.28974999999999995
23,2,3,0,4,28.913999999999977,20,132,104,100,105,22,29.645999999999976,3.0499999999999976,0.6709999999999998,1.4029999999999991,20,12,3,5,135,14,3,6,2,0.5,18,3,6,L,0.2196,0.21785714285714283,0.22366666666666665,0.2338333333333333
23,2,4,0,10,20.190999999999985,20,96,94,67,86,90,21.227999999999984,4.574999999999997,1.0979999999999994,4.330999999999997,20,12,4,12,102,22,5,20,3,0.5,22,3.25,6,L,0.20811764705882352,0.20795454545454542,0.2196,0.21654999999999996
23,3,5,0,9,23.66799999999998,20,116,3,61,69,65,32.75699999999998,2.3179999999999983,2.0129999999999986,0.305,20,10,7,2,161,12,7,2,4,0.5,30,4.5,6,L,0.20345962732919254,0.19316666666666665,0.28757142857142853,0.1525
23,3,6,0,10,12.44399999999999,17,61,91,41,92,14,14.029999999999989,11.77299999999999,0.6099999999999999,4.635999999999997,20,17,3,14,68,38,3,22,3,0,17,4.25,6,L,0.20632352941176468,0.30981578947368416,0.20333333333333334,0.2107272727272727
23,4,7,0,5,26.04699999999998,20,136,41,37,100,46,28.242999999999977,2.0129999999999986,0.5489999999999999,1.463999999999999,20,7,3,8,146,7,3,9,5,0.5,32,4.25,6,L,0.19344520547945204,0.2875714285714285,0.183,0.16266666666666665
23,4,8,0,1,35.623999999999974,19,157,15,75,56,74,52.88699999999996,1.8299999999999987,1.2199999999999993,0.7319999999999998,20,10,7,5,234,10,7,6,3,0,16,4,6,L,0.22601282051282048,0.183,0.1742857142857143,0.122
23,5,9,0,5,24.03399999999998,16,103,16,86,24,51,50.14199999999996,0.244,0.427,0.305,20,2,1,2,219,2,1,2,5,0,19,4.75,6,L,0.22895890410958902,0.122,0.427,0.1525
23,5,10,0,3,18.970999999999986,20,107,73,3,102,61,35.501999999999974,0.244,6.343999999999995,1.2199999999999993,20,2,14,3,177,3,27,3,5,0,15,3.75,6,L,0.20057627118644067,0.08133333333333333,0.23496296296296296,0.4066666666666666
24,1,1,0,9,41.60199999999997,18,199,70,66,25,71,42.21199999999997,0.9759999999999995,1.524999999999999,4.086999999999997,20,5,6,9,204,5,7,14,4,0.5,29,4.25,6,L,0.20692156862745095,0.19519999999999998,0.21785714285714286,0.2919285714285714
24,1,2,0,2,16.16499999999999,19,86,57,60,51,37,17.506999999999987,2.0739999999999985,2.2569999999999983,5.062999999999996,20,7,6,10,92,9,8,21,4,0.5,29,4.25,6,L,0.19029347826086956,0.23044444444444445,0.28212499999999996,0.24109523809523806
24,2,3,0,8,22.203999999999983,19,111,45,2,86,7,40.86999999999997,2.3179999999999983,9.149999999999993,1.463999999999999,20,10,18,8,194,11,40,8,2,0,20,5,6,L,0.2106701030927835,0.21072727272727274,0.22874999999999998,0.183
24,2,4,0,7,12.80999999999999,20,65,23,22,18,24,14.883999999999988,0.183,4.147999999999997,5.062999999999996,20,1,7,12,75,1,10,21,6,1,72,6,6,L,0.19845333333333331,0.183,0.4147999999999999,0.24109523809523808
24,3,5,0,2,17.201999999999988,17,82,39,56,55,17,27.44999999999998,0.061,1.3419999999999992,1.9519999999999986,20,1,6,2,132,1,6,2,4,0,19,4.75,6,L,0.20795454545454545,0.061,0.22366666666666665,0.9759999999999995
24,3,6,0,3,27.02299999999998,19,131,28,32,31,26,27.815999999999978,1.2199999999999993,0.6099999999999999,0.305,20,5,5,2,135,5,5,2,5,1,60,5,6,L,0.20604444444444442,0.244,0.122,0.1525
24,4,7,0,8,41.66299999999997,13,171,112,22,15,16,47.88499999999996,30.133999999999975,15.676999999999987,5.306999999999996,20,19,18,15,207,119,72,25,2,0.5,38,5,6,L,0.2313285024154589,0.2532268907563025,0.2177361111111111,0.21227999999999997
24,4,8,0,4,20.922999999999984,20,107,101,97,102,6,21.654999999999983,1.1589999999999994,1.9519999999999986,0.9149999999999996,20,4,6,4,111,5,6,4,2,0.5,18,3,6,L,0.19509009009009007,0.23179999999999998,0.3253333333333333,0.22875
24,5,9,0,8,54.28999999999996,16,234,110,120,25,64,54.472999999999956,7.319999999999994,4.513999999999997,4.391999999999997,17,16,11,10,235,33,13,14,2,0,13,3.25,6,L,0.23179999999999998,0.2218181818181818,0.3472307692307692,0.31371428571428567
24,5,10,0,2,33.122999999999976,20,149,54,41,55,58,33.427999999999976,2.622999999999998,3.0499999999999976,0.7929999999999997,20,7,7,4,152,12,10,4,4,0.5,29,4.25,6,L,0.2199210526315789,0.2185833333333333,0.305,0.19824999999999998
25,1,1,0,1,17.628999999999987,18,78,79,76,80,78,19.580999999999985,0.305,1.2199999999999993,2.500999999999998,20,1,4,9,84,1,7,14,3,1,36,3,6,L,0.23310714285714285,0.305,0.1742857142857143,0.17864285714285713
25,1,2,0,2,20.739999999999984,19,108,26,58,53,88,26.04699999999998,1.585999999999999,3.2329999999999974,10.918999999999992,20,8,5,15,127,8,13,44,4,0,16,4,6,L,0.20509448818897635,0.19824999999999998,0.24869230769230766,0.24815909090909088
25,2,3,0,6,42.94399999999997,15,206,12,7,6,1,44.468999999999966,2.0129999999999986,3.598999999999997,9.576999999999993,20,8,13,16,212,10,18,45,6,1,72,6,6,L,0.20975943396226412,0.2013,0.19994444444444442,0.2128222222222222
25,2,4,0,7,37.94199999999997,15,158,16,14,19,74,38.30799999999997,2.500999999999998,3.720999999999997,10.918999999999992,17,6,10,17,160,7,14,51,6,0.5,39,5.25,6,L,0.23942499999999997,0.3572857142857142,0.26578571428571424,0.21409803921568626
25,3,5,0,9,15.432999999999987,20,71,21,13,18,63,30.926999999999975,0.427,3.476999999999997,0.061,20,1,8,1,136,2,11,1,4,0.5,40,5.5,6,L,0.22740441176470585,0.2135,0.31609090909090903,0.061
25,3,6,0,6,14.029999999999989,19,67,8,7,3,10,16.40899999999999,1.8909999999999987,2.3179999999999983,0.9759999999999995,20,8,7,5,76,9,8,5,6,1,72,6,6,L,0.21590789473684208,0.2101111111111111,0.28974999999999995,0.19519999999999998
25,4,7,0,10,28.425999999999977,17,124,90,93,13,86,32.08599999999998,3.2939999999999974,36.59999999999997,0.061,20,14,18,1,143,16,149,1,3,0.5,24,3.75,6,L,0.22437762237762235,0.205875,0.24563758389261742,0.061
25,4,8,0,5,16.469999999999988,13,76,41,77,82,8,17.262999999999987,29.706999999999976,0.366,1.0979999999999994,17,19,2,6,80,115,2,6,5,0,17,4.25,6,L,0.2157875,0.25832173913043477,0.183,0.183
25,5,9,0,9,39.03999999999997,17,189,1,27,6,29,72.77299999999994,0.122,2.439999999999998,0.5489999999999999,20,1,10,2,331,1,12,3,4,0,22,5.5,6,L,0.21985800604229605,0.122,0.2033333333333333,0.183
25,5,10,0,7,16.591999999999988,20,76,16,15,20,50,17.628999999999987,2.3179999999999983,0.9149999999999996,1.2199999999999993,20,8,4,6,80,9,5,7,6,0.5,40,5.5,6,L,0.2203625,0.25755555555555554,0.183,0.1742857142857143
26,1,1,0,8,27.693999999999978,17,122,117,111,110,57,29.523999999999976,0.9149999999999996,0.7319999999999998,2.3789999999999982,20,3,5,10,130,3,6,16,2,0.5,16,2.5,6,L,0.2271076923076923,0.305,0.122,0.1486875
26,1,2,0,4,17.750999999999987,15,72,103,107,104,102,17.872999999999987,0.6099999999999999,2.805999999999998,0.427,16,2,8,2,73,2,10,2,2,1,24,2,6,L,0.24483561643835614,0.305,0.28059999999999996,0.2135
26,2,3,0,5,19.885999999999985,14,76,39,44,38,21,21.593999999999983,0.6099999999999999,1.2809999999999993,3.476999999999997,19,4,5,12,82,5,5,17,5,0.5,36,5.25,6,L,0.2633414634146341,0.122,0.2562,0.20452941176470588
26,2,4,0,1,38.24699999999997,19,180,31,78,80,83,40.25999999999997,0.9149999999999996,0.122,3.0499999999999976,20,5,1,9,188,6,1,11,3,0.5,23,3.5,6,L,0.21414893617021274,0.1525,0.122,0.2772727272727272
26,3,5,0,2,23.54599999999998,15,99,60,57,52,50,24.09499999999998,4.574999999999997,0.6709999999999998,4.6969999999999965,18,14,4,14,103,20,4,25,4,1,48,4,6,L,0.23393203883495142,0.22874999999999998,0.16775,0.18788
26,3,6,0,7,13.602999999999989,20,70,19,18,13,22,13.663999999999989,6.343999999999995,3.659999999999997,1.463999999999999,20,16,10,3,71,32,18,3,6,1,72,6,6,L,0.1924507042253521,0.19824999999999998,0.20333333333333334,0.4879999999999998
26,4,7,0,7,37.57599999999997,16,161,22,17,18,14,37.69799999999997,2.8669999999999978,0.6709999999999998,4.025999999999997,18,10,4,10,163,13,4,16,6,1,72,6,6,L,0.23127607361963187,0.2205384615384615,0.16775,0.251625
26,4,8,0,6,13.48099999999999,13,63,9,4,7,10,14.517999999999988,2.1349999999999985,2.561999999999998,2.1959999999999984,17,9,9,4,67,12,15,5,6,1,72,6,6,L,0.21668656716417908,0.17791666666666667,0.1708,0.43919999999999987
26,5,9,0,5,38.67399999999997,14,161,1,8,74,43,92.47599999999993,1.1589999999999994,0.8539999999999996,0.061,20,4,3,1,378,4,3,1,5,0,20,5,6,L,0.2446455026455026,0.28974999999999995,0.2846666666666666,0.061
26,5,10,0,8,18.970999999999986,18,98,115,120,19,111,19.824999999999985,0.183,3.781999999999997,0.366,20,1,11,3,102,1,19,3,2,0.5,18,3,6,L,0.19436274509803922,0.183,0.19905263157894734,0.122
27,1,1,0,10,15.432999999999987,18,69,91,42,85,87,19.153999999999986,4.940999999999996,0.122,0.6709999999999998,20,12,1,3,87,18,1,3,3,0.5,23,3.5,6,L,0.22016091954022987,0.27449999999999997,0.122,0.22366666666666665
27,1,2,0,6,19.885999999999985,19,95,5,11,9,6,20.861999999999984,3.1109999999999975,0.366,10.308999999999992,20,9,2,15,100,11,2,38,6,1,72,6,6,L,0.20862,0.2828181818181818,0.183,0.2712894736842105
27,2,3,0,1,11.650999999999991,17,53,75,16,82,17,17.323999999999987,8.661999999999994,0.366,0.8539999999999996,20,15,4,3,75,33,4,3,3,0,18,4.5,6,L,0.23098666666666665,0.26248484848484843,0.0915,0.2846666666666666
27,2,4,0,4,18.299999999999986,18,92,106,108,104,6,20.983999999999984,0.427,1.3419999999999992,2.500999999999998,20,4,4,7,99,4,4,13,2,0.5,18,3,6,L,0.21195959595959596,0.10675,0.3354999999999999,0.19238461538461538
27,3,5,0,4,30.255999999999975,16,144,33,16,66,17,40.01599999999997,4.391999999999997,2.439999999999998,0.244,20,11,7,1,182,15,8,1,2,0,21,5.25,6,L,0.21986813186813184,0.29279999999999995,0.30499999999999994,0.244
27,3,6,0,6,14.822999999999988,19,75,4,45,7,38,15.432999999999987,12.50499999999999,1.0369999999999995,0.122,20,17,6,1,80,42,6,1,6,0,22,5.5,6,L,0.1929125,0.2977380952380952,0.17283333333333334,0.122
27,4,7,0,6,43.06599999999997,20,198,12,7,70,61,44.407999999999966,2.9889999999999977,4.330999999999997,0.061,20,9,11,1,202,13,18,1,6,0,20,5,6,L,0.21984158415841581,0.2299230769230769,0.2406111111111111,0.061
27,4,8,0,5,16.34799999999999,19,66,43,14,39,46,20.312999999999985,4.391999999999997,1.7689999999999988,3.2939999999999974,20,13,5,9,83,16,5,10,5,0.5,36,5.25,6,L,0.2447349397590361,0.27449999999999997,0.35379999999999995,0.32939999999999997
27,5,9,0,9,25.49799999999998,17,130,65,70,68,66,26.04699999999998,1.8299999999999987,2.0129999999999986,2.9279999999999977,19,6,6,11,133,8,6,15,4,1,48,4,6,L,0.19584210526315787,0.22875,0.3354999999999999,0.19519999999999998
27,5,10,0,2,27.449999999999978,20,124,50,11,51,97,31.292999999999974,0.366,11.223999999999991,0.7319999999999998,20,3,18,4,146,3,40,5,4,0,16,4,6,L,0.21433561643835614,0.122,0.28059999999999996,0.1464
28,1,1,0,6,17.323999999999987,16,86,4,5,9,10,18.238999999999987,2.0129999999999986,6.8929999999999945,0.9759999999999995,20,6,12,4,93,6,25,5,6,1,72,6,6,L,0.19611827956989247,0.3354999999999999,0.27571999999999997,0.19519999999999998
28,1,2,0,2,32.02499999999998,20,136,58,56,55,32,32.81799999999998,0.122,6.709999999999995,2.1959999999999984,20,1,13,7,139,1,25,11,4,0.5,29,4.25,6,L,0.2361007194244604,0.122,0.26839999999999997,0.1996363636363636
28,2,3,0,4,35.867999999999974,19,170,100,104,99,72,36.84399999999997,2.744999999999998,4.330999999999997,0.061,20,9,12,1,173,10,22,1,2,0.5,16,2.5,6,L,0.21297109826589594,0.27449999999999997,0.19686363636363635,0.061
28,2,4,0,7,31.475999999999974,15,151,14,26,29,24,31.536999999999974,4.7579999999999965,5.855999999999995,0.305,16,12,16,2,152,19,26,2,6,0,22,5.5,6,L,0.20748026315789472,0.2504210526315789,0.2252307692307692,0.1525
28,3,5,0,7,22.630999999999982,18,103,17,24,22,49,22.752999999999982,2.3789999999999982,4.879999999999996,5.611999999999996,19,5,12,14,104,7,23,27,6,0.5,40,5.5,6,L,0.21877884615384613,0.3398571428571428,0.21217391304347824,0.20785185185185182
28,3,6,0,6,24.70499999999998,16,111,1,6,9,67,28.852999999999977,1.8299999999999987,4.147999999999997,2.3789999999999982,20,9,12,10,137,9,16,15,6,0.5,40,5.5,6,L,0.21060583941605837,0.2033333333333333,0.2592499999999999,0.1586
28,4,7,0,9,27.815999999999978,19,137,71,62,69,12,28.608999999999977,0.488,3.537999999999997,13.724999999999989,20,2,11,17,143,2,19,56,4,0.5,30,4.5,6,L,0.20006293706293704,0.244,0.18621052631578947,0.24508928571428568
28,4,8,0,8,14.822999999999988,20,64,14,112,19,120,34.403999999999975,0.122,0.6099999999999999,0.061,20,1,4,1,147,1,4,1,2,0,16,4,6,L,0.2340408163265306,0.122,0.1525,0.061
28,5,9,0,6,14.151999999999989,17,72,7,5,2,9,15.981999999999987,0.244,3.3549999999999973,1.7689999999999988,20,2,9,7,83,2,17,7,6,1,72,6,6,L,0.19255421686746985,0.122,0.19735294117647056,0.2527142857142857
28,5,10,0,5,16.835999999999988,15,86,40,45,42,41,17.628999999999987,1.2199999999999993,0.305,3.2939999999999974,17,6,2,12,88,6,2,19,5,1,60,5,6,L,0.20032954545454545,0.2033333333333333,0.1525,0.1733684210526316
29,1,1,0,3,34.403999999999975,19,180,25,32,34,51,38.85699999999997,4.269999999999997,2.2569999999999983,2.744999999999998,20,14,8,8,198,22,9,9,5,0.5,34,4.75,6,L,0.19624747474747473,0.1940909090909091,0.25077777777777777,0.30499999999999994
29,1,2,0,1,18.665999999999986,18,92,76,73,77,69,20.617999999999984,4.6969999999999965,1.463999999999999,0.5489999999999999,20,10,10,5,98,16,12,5,3,0.5,22,3.25,6,L,0.2103877551020408,0.29356249999999995,0.122,0.1098
29,2,3,0,10,15.798999999999987,17,82,96,85,94,91,16.713999999999988,0.488,0.122,1.7689999999999988,20,3,2,3,88,3,2,3,3,1,36,3,6,L,0.18993181818181817,0.16266666666666665,0.061,0.5896666666666663
29,2,4,0,2,17.140999999999988,19,83,60,51,4,75,17.201999999999988,4.513999999999997,7.8689999999999936,0.122,20,12,14,2,84,20,31,2,4,0,17,4.25,6,L,0.20478571428571427,0.22569999999999998,0.25383870967741934,0.061
29,3,5,0,1,27.998999999999977,19,136,82,78,75,9,28.669999999999977,1.463999999999999,1.2809999999999993,3.537999999999997,20,4,4,9,139,4,4,17,3,0.5,24,3.75,6,L,0.20625899280575538,0.36599999999999994,0.3202499999999999,0.2081176470588235
29,3,6,0,7,27.693999999999978,18,126,15,16,21,18,27.754999999999978,9.454999999999993,0.366,2.0739999999999985,19,16,4,6,127,40,4,7,6,1,72,6,6,L,0.21854330708661415,0.23637499999999997,0.0915,0.29628571428571426
29,4,7,0,3,40.07699999999997,15,177,31,34,94,63,44.102999999999966,9.515999999999993,1.2199999999999993,6.953999999999994,20,14,3,15,193,32,3,33,5,0,17,4.25,6,L,0.22851295336787564,0.29737499999999994,0.40666666666666657,0.2107272727272727
29,4,8,0,1,17.628999999999987,20,81,74,76,78,11,18.482999999999986,0.5489999999999999,0.061,10.308999999999992,20,2,1,16,85,2,1,44,3,0.5,24,3.75,6,L,0.2174470588235294,0.27449999999999997,0.061,0.23429545454545453
29,5,9,0,4,40.80899999999997,15,176,20,46,75,81,70.21099999999994,1.4029999999999991,0.305,3.0499999999999976,20,6,2,10,308,8,3,12,2,0,17,4.25,6,L,0.2279577922077922,0.175375,0.10166666666666667,0.25416666666666665
29,5,10,0,8,25.49799999999998,12,112,112,110,109,33,25.55899999999998,2.2569999999999983,0.244,7.8689999999999936,13,7,2,15,113,7,2,36,2,0.5,17,2.75,6,L,0.22618584070796457,0.3224285714285714,0.122,0.2185833333333333
30,1,1,0,9,46.603999999999964,17,187,61,72,68,9,46.725999999999964,0.244,5.428999999999996,2.1349999999999985,18,2,12,7,188,2,22,7,4,0.5,30,4.5,6,L,0.24854255319148932,0.122,0.24677272727272725,0.30499999999999994
30,1,2,0,10,28.425999999999977,19,143,87,90,60,57,29.340999999999976,4.086999999999997,0.7319999999999998,2.0739999999999985,20,9,4,8,146,16,4,8,3,0,14,3.5,6,L,0.20096575342465753,0.2554375,0.183,0.25925
30,2,3,0,7,19.031999999999986,17,86,16,24,89,37,19.092999999999986,4.208999999999997,3.598999999999997,8.295999999999994,18,10,12,13,87,15,17,29,6,0,20,5,6,L,0.2194597701149425,0.28059999999999996,0.21170588235294116,0.28606896551724137
30,2,4,0,1,23.85099999999998,13,104,74,11,2,76,24.27799999999998,3.537999999999997,8.905999999999993,2.3179999999999983,17,13,16,9,108,18,48,9,3,0,18,4.5,6,L,0.22479629629629627,0.19655555555555554,0.18554166666666666,0.25755555555555554
30,3,5,0,4,9.942999999999993,19,48,108,100,76,103,10.430999999999992,5.916999999999995,9.454999999999993,2.561999999999998,20,14,18,8,51,21,43,9,2,0.5,15,2.25,6,L,0.20452941176470588,0.2817619047619047,0.21988372093023253,0.2846666666666666
30,3,6,0,3,60.81699999999995,16,274,35,86,93,29,62.95199999999995,2.683999999999998,1.2199999999999993,0.6099999999999999,20,7,5,3,289,8,7,3,5,0,16,4,6,L,0.21782698961937713,0.3354999999999999,0.1742857142857143,0.20333333333333334
30,4,7,0,4,28.730999999999977,20,121,101,104,98,105,28.852999999999977,2.0129999999999986,0.488,2.439999999999998,20,5,2,8,122,6,2,13,2,1,24,2,6,L,0.2365,0.33549999999999996,0.244,0.18769230769230769
30,4,8,0,8,30.499999999999975,16,128,110,120,115,111,30.560999999999975,1.3419999999999992,0.244,2.561999999999998,17,5,3,8,129,6,3,12,2,1,24,2,6,L,0.23690697674418604,0.22366666666666665,0.08133333333333333,0.21349999999999997
30,5,9,0,2,24.21699999999998,20,137,50,58,24,13,25.43699999999998,0.9149999999999996,3.476999999999997,0.488,20,4,8,3,144,4,12,3,4,0,20,5,6,L,0.1766458333333333,0.22875,0.28975,0.16266666666666665
30,5,10,0,8,16.774999999999988,20,68,111,118,120,72,16.896999999999988,0.5489999999999999,1.2809999999999993,10.369999999999992,20,2,6,16,69,2,7,49,2,0.5,16,2.5,6,L,0.24488405797101448,0.27449999999999997,0.183,0.21163265306122447
31,1,1,0,6,21.959999999999983,18,112,2,8,30,31,22.264999999999983,2.9279999999999977,12.19999999999999,0.5489999999999999,20,9,17,2,116,11,39,2,6,0,22,5.5,6,L,0.1919396551724138,0.26618181818181813,0.3128205128205127,0.27449999999999997
31,1,2,0,4,26.65699999999998,19,118,98,99,20,45,27.205999999999978,1.7079999999999989,3.9649999999999967,2.683999999999998,20,6,10,7,122,8,16,14,2,0,15,3.75,6,L,0.22299999999999998,0.2135,0.24781249999999996,0.1917142857142857
31,2,3,0,3,29.279999999999976,18,126,15,105,29,25,37.45399999999997,0.9149999999999996,0.061,1.8299999999999987,20,6,1,6,162,6,1,8,5,0,18,4.5,6,L,0.2311975308641975,0.1525,0.061,0.22874999999999995
31,2,4,0,5,19.702999999999985,17,90,47,37,43,42,20.373999999999985,0.9149999999999996,1.463999999999999,0.8539999999999996,20,4,5,4,93,4,5,4,5,1,60,5,6,L,0.2190752688172043,0.22875,0.29279999999999995,0.21349999999999997
31,3,5,0,7,18.421999999999986,20,80,13,23,18,108,20.068999999999985,2.683999999999998,5.123999999999996,0.8539999999999996,20,11,14,2,87,15,26,2,6,0.5,38,5,6,L,0.23067816091954021,0.17893333333333333,0.19707692307692304,0.42699999999999994
31,3,6,0,9,24.39999999999998,18,110,66,62,61,45,25.07099999999998,0.6099999999999999,2.0739999999999985,8.844999999999994,20,4,6,13,115,6,8,25,4,0.5,29,4.25,6,L,0.2180086956521739,0.10166666666666667,0.25925,0.35379999999999995
31,4,7,0,2,16.16499999999999,20,96,60,34,50,95,23.97299999999998,5.001999999999996,0.9149999999999996,2.8669999999999978,20,13,5,9,129,19,6,10,4,0,16,4,6,L,0.18583720930232556,0.2632631578947368,0.1525,0.28669999999999995
31,4,8,0,5,30.682999999999975,15,152,38,48,108,7,33.915999999999976,0.061,3.1109999999999975,0.488,20,1,10,4,164,1,15,5,5,0,18,4.5,6,L,0.20680487804878048,0.061,0.2074,0.09759999999999999
31,5,9,0,7,6.221999999999995,7,32,24,17,14,47,8.417999999999994,1.524999999999999,10.735999999999992,2.1959999999999984,13,5,16,10,39,7,50,11,6,0.5,41,5.75,6,L,0.21584615384615383,0.21785714285714283,0.21471999999999997,0.19963636363636364
31,5,10,0,9,16.04299999999999,20,84,69,61,67,2,16.22599999999999,0.7929999999999997,4.147999999999997,3.659999999999997,20,2,10,7,85,2,19,12,4,0.5,30,4.5,6,L,0.19089411764705883,0.39649999999999996,0.21831578947368419,0.30499999999999994
32,1,1,0,5,15.981999999999987,20,86,44,10,46,81,23.057999999999982,0.7319999999999998,4.7579999999999965,2.1959999999999984,20,4,14,5,121,4,21,6,5,0,19,4.75,6,L,0.19056198347107436,0.183,0.22657142857142856,0.36599999999999994
32,1,2,0,2,34.830999999999975,20,159,55,54,49,24,35.379999999999974,1.2809999999999993,0.244,0.8539999999999996,20,6,2,1,162,6,2,2,4,0.5,30,4.5,6,L,0.21839506172839504,0.2135,0.122,0.4269999999999999
32,2,3,0,10,29.584999999999976,19,144,96,92,95,28,29.767999999999976,0.183,1.2809999999999993,1.7689999999999988,20,2,4,6,146,2,4,9,3,0.5,23,3.5,6,L,0.2038904109589041,0.0915,0.32024999999999987,0.19655555555555554
32,2,4,0,6,30.438999999999975,19,144,10,6,1,4,30.499999999999975,1.9519999999999986,0.8539999999999996,17.872999999999987,20,7,4,16,145,9,5,72,6,1,72,6,6,L,0.21034482758620687,0.21688888888888885,0.1708,0.24823611111111107
32,3,5,0,7,23.118999999999982,20,117,22,21,17,97,23.72899999999998,1.0369999999999995,7.502999999999994,3.476999999999997,20,5,13,13,123,5,27,18,6,0.5,38,5,6,L,0.19291869918699187,0.2074,0.27788888888888885,0.19316666666666665
32,3,6,0,1,26.47399999999998,20,138,84,82,83,11,27.205999999999978,0.183,0.244,6.8319999999999945,20,2,2,11,141,2,2,24,3,0.5,24,3.75,6,L,0.19295035460992907,0.0915,0.122,0.2846666666666666
32,4,7,0,7,41.90699999999997,16,193,24,15,18,53,43.49299999999997,8.661999999999994,0.7929999999999997,2.561999999999998,20,15,4,5,200,27,4,6,6,0.5,40,5.5,6,L,0.217465,0.3208148148148148,0.19824999999999998,0.4269999999999998
32,4,8,0,6,24.88799999999998,12,99,2,7,5,39,24.94899999999998,2.0739999999999985,7.624999999999994,13.602999999999989,13,8,14,16,100,11,34,67,6,0.5,41,5.75,6,L,0.24948999999999996,0.18854545454545454,0.2242647058823529,0.20302985074626864
32,5,9,0,7,16.652999999999988,13,76,23,22,14,17,18.543999999999986,0.183,3.720999999999997,1.2809999999999993,17,1,12,3,82,1,15,3,6,1,72,6,6,L,0.2261463414634146,0.183,0.24806666666666663,0.4269999999999998
32,5,10,0,6,24.64399999999998,17,121,8,4,10,12,24.70499999999998,6.770999999999995,3.1109999999999975,5.245999999999996,18,14,8,14,122,26,11,24,6,1,72,6,6,L,0.20249999999999999,0.26042307692307687,0.2828181818181818,0.21858333333333332
33,1,1,0,7,23.78999999999998,18,113,22,16,15,20,24.09499999999998,9.027999999999993,1.8299999999999987,0.366,20,16,7,4,116,42,9,4,6,1,72,6,6,L,0.2077155172413793,0.21495238095238092,0.20333333333333334,0.0915
33,1,2,0,10,24.39999999999998,19,129,89,93,87,95,26.77899999999998,0.061,1.585999999999999,2.439999999999998,20,1,6,5,142,1,7,8,3,1,36,3,6,L,0.18858450704225352,0.061,0.22657142857142856,0.30499999999999994
33,2,3,0,5,41.35799999999997,12,191,42,89,48,87,42.45599999999997,2.683999999999998,0.7929999999999997,6.282999999999995,19,10,5,13,199,14,5,26,5,0,16,4,6,L,0.2133467336683417,0.1917142857142857,0.1586,0.24165384615384614
33,2,4,0,7,21.593999999999983,17,108,18,33,14,29,23.42399999999998,4.818999999999996,0.6709999999999998,1.7689999999999988,20,10,4,3,118,17,5,4,6,0,22,5.5,6,L,0.1985084745762712,0.2834705882352941,0.13419999999999999,0.4422499999999999
33,3,5,0,6,25.55899999999998,9,106,3,1,5,9,30.133999999999975,7.990999999999993,0.8539999999999996,0.244,20,15,6,3,130,32,6,3,6,1,72,6,6,L,0.23179999999999998,0.24971874999999996,0.14233333333333334,0.08133333333333333
33,3,6,0,7,30.865999999999975,17,151,17,13,19,20,31.963999999999974,5.611999999999996,0.061,3.3549999999999973,20,13,1,12,157,26,1,17,6,1,72,6,6,L,0.20359235668789807,0.21584615384615383,0.061,0.19735294117647056
33,4,7,0,1,26.29099999999998,18,128,82,77,19,40,27.754999999999978,1.585999999999999,4.635999999999997,8.356999999999994,20,9,12,15,133,9,17,42,3,0,17,4.25,6,L,0.20868421052631578,0.17622222222222222,0.27270588235294113,0.19897619047619047
33,4,8,0,3,38.30799999999997,15,159,33,32,28,31,39.40599999999997,2.0739999999999985,1.7689999999999988,1.4029999999999991,19,5,9,6,164,7,11,8,5,1,60,5,6,L,0.240280487804878,0.2962857142857142,0.1608181818181818,0.175375
33,5,9,0,7,22.630999999999982,19,100,13,24,22,15,23.179999999999982,0.122,5.062999999999996,8.173999999999994,20,1,14,16,103,1,29,42,6,1,72,6,6,L,0.22504854368932037,0.122,0.17458620689655172,0.1946190476190476
33,5,10,0,2,14.212999999999989,17,60,49,82,2,83,14.456999999999988,10.613999999999992,2.439999999999998,9.881999999999993,18,13,6,13,61,40,8,37,4,0,16,4,6,L,0.237,0.26535,0.30499999999999994,0.26708108108108103
34,1,1,0,10,30.011999999999976,20,125,93,95,36,85,32.57399999999998,2.2569999999999983,8.783999999999994,1.585999999999999,20,7,16,6,130,7,45,6,3,0.5,23,3.5,6,L,0.2505692307692307,0.3224285714285714,0.19519999999999998,0.2643333333333333
34,1,2,0,1,38.91799999999997,18,187,78,49,82,79,38.97899999999997,3.720999999999997,0.183,3.3549999999999973,19,10,3,11,188,18,3,18,3,0.5,22,3.25,6,L,0.2073351063829787,0.20672222222222222,0.061,0.18638888888888888
34,2,3,0,1,25.37599999999998,16,127,75,80,77,11,26.29099999999998,0.183,0.7319999999999998,0.5489999999999999,19,1,3,1,130,1,3,1,3,0.5,24,3.75,6,L,0.20223846153846153,0.183,0.244,0.5489999999999999
34,2,4,0,9,31.536999999999974,19,138,65,69,63,17,32.939999999999976,1.3419999999999992,0.244,5.062999999999996,20,6,2,10,145,6,3,16,4,0.5,30,4.5,6,L,0.22717241379310343,0.22366666666666665,0.08133333333333333,0.3164374999999999
34,3,5,0,2,43.37099999999997,19,196,17,76,52,30,63.927999999999955,0.427,0.9759999999999995,0.061,20,1,3,1,295,1,4,1,4,0,18,4.5,6,L,0.2167050847457627,0.427,0.24399999999999997,0.061
34,3,6,0,10,23.60699999999998,17,105,94,105,43,71,24.70499999999998,7.990999999999993,8.539999999999994,1.2809999999999993,20,14,17,3,111,34,36,5,3,0,14,3.5,6,L,0.22256756756756754,0.23502941176470585,0.2372222222222222,0.2562
34,4,7,0,1,24.39999999999998,14,117,81,76,16,24,25.31499999999998,2.8669999999999978,4.025999999999997,0.7319999999999998,18,12,14,2,121,16,18,2,3,0,18,4.5,6,L,0.20921487603305783,0.1791875,0.22366666666666665,0.366
34,4,8,0,6,12.62699999999999,20,57,4,5,7,8,14.822999999999988,0.7929999999999997,2.3789999999999982,1.4029999999999991,20,3,7,7,66,5,11,9,6,1,72,6,6,L,0.22459090909090906,0.1586,0.21627272727272726,0.15588888888888888
34,5,9,0,7,32.20799999999998,11,130,22,19,15,91,32.26899999999998,4.086999999999997,0.244,15.554999999999987,12,13,2,16,131,20,2,65,6,0.5,39,5.25,6,L,0.24632824427480912,0.20435,0.122,0.23930769230769228
34,5,10,0,8,57.94999999999995,11,225,112,79,119,44,58.62099999999995,4.635999999999997,0.8539999999999996,4.330999999999997,13,13,5,6,227,26,5,8,2,0,12,3,6,L,0.25824229074889865,0.1783076923076923,0.1708,0.5413749999999997
35,1,1,0,5,22.813999999999982,19,99,44,38,42,5,23.42399999999998,1.0979999999999994,0.122,8.905999999999993,20,3,1,15,101,3,1,37,5,0.5,36,5.25,5,L,0.2319207920792079,0.366,0.122,0.2407027027027027
35,1,2,0,10,18.848999999999986,20,95,88,89,13,16,19.458999999999985,8.173999999999994,1.463999999999999,0.7929999999999997,20,15,5,2,97,32,7,2,3,0,18,4.5,5,L,0.2006082474226804,0.2554375,0.2091428571428571,0.39649999999999996
35,2,3,0,10,28.181999999999977,19,133,86,87,90,93,28.730999999999977,0.427,2.0739999999999985,2.9279999999999977,20,1,6,8,137,2,9,10,3,1,36,3,5,L,0.20971532846715327,0.2135,0.23044444444444445,0.29279999999999995
35,2,4,0,9,58.13299999999995,14,273,10,61,71,6,62.58599999999995,3.1719999999999975,0.6099999999999999,1.3419999999999992,20,12,2,6,289,14,2,7,4,0,20,5,5,L,0.21656055363321797,0.22657142857142856,0.30499999999999994,0.1917142857142857
35,3,5,0,4,10.369999999999992,16,49,98,102,107,13,10.430999999999992,0.061,0.183,22.081999999999983,17,1,1,17,50,1,1,91,2,0.5,18,3,5,L,0.20861999999999997,0.061,0.183,0.24265934065934064
35,3,6,0,2,72.40700000000092,14,315,51,48,44,39,77.71400000000092,1.1589999999999994,0.244,4.330999999999997,20,5,1,10,338,8,1,19,4,0.5,34,4.75,5,L,0.2299230769230769,0.144875,0.244,0.22794736842105262
35,4,7,0,5,23.72899999999998,20,117,39,10,8,1,27.998999999999977,6.8319999999999945,7.380999999999994,27.815999999999978,20,12,13,17,136,31,33,122,5,0.5,41,5.75,5,L,0.20587499999999997,0.22038709677419355,0.22366666666666665,0.22799999999999998
35,4,8,0,3,47.94599999999996,10,189,28,32,20,69,48.00699999999996,2.0129999999999986,6.587999999999995,0.488,11,11,12,3,190,12,31,3,5,0,20,5,5,L,0.25266842105263154,0.16775,0.21251612903225806,0.16266666666666665
36,1,1,0,4,28.730999999999977,20,129,97,44,107,19,29.584999999999976,6.282999999999995,5.672999999999996,1.2809999999999993,20,12,16,4,134,23,27,5,2,0,15,3.75,5,L,0.2207835820895522,0.2731739130434782,0.2101111111111111,0.2562
36,1,2,0,3,21.593999999999983,17,105,29,33,2,28,24.64399999999998,2.622999999999998,9.698999999999993,2.1349999999999985,20,6,17,9,117,6,36,10,5,0.5,36,5.25,5,L,0.2106324786324786,0.43716666666666654,0.26941666666666664,0.2135
36,2,3,0,3,11.77299999999999,17,65,28,18,78,36,12.13899999999999,38.30799999999997,0.488,0.6099999999999999,18,19,2,3,66,163,2,3,5,0,19,4.75,5,L,0.1839242424242424,0.23501840490797543,0.244,0.20333333333333334
36,2,4,0,9,31.414999999999974,20,151,61,68,48,64,34.525999999999975,0.5489999999999999,1.4029999999999991,0.9149999999999996,20,3,4,4,158,3,4,6,4,0.5,29,4.25,5,L,0.21851898734177214,0.183,0.35075,0.1525
36,3,5,0,9,41.05299999999997,18,185,65,67,64,68,41.41899999999997,0.122,4.635999999999997,0.7929999999999997,20,2,12,4,188,2,21,5,4,1,48,4,5,L,0.22031382978723402,0.061,0.22076190476190474,0.1586
36,3,6,0,6,10.247999999999992,10,52,5,8,9,12,10.308999999999992,0.9149999999999996,1.1589999999999994,31.414999999999974,11,3,3,17,53,4,3,116,6,1,72,6,5,L,0.19450943396226414,0.22875,0.3863333333333332,0.27081896551724133
36,4,7,0,7,25.19299999999998,20,115,15,21,71,18,25.25399999999998,7.685999999999994,5.123999999999996,3.903999999999997,20,13,12,9,116,28,21,15,6,0.5,40,5.5,5,L,0.21770689655172412,0.27449999999999997,0.244,0.26026666666666665
36,4,8,0,10,71.12600000000077,13,308,96,88,89,101,71.18700000000078,0.9759999999999995,0.7319999999999998,2.9279999999999977,14,5,3,8,309,5,3,14,3,0.5,20,2.75,5,L,0.230378640776699,0.19519999999999998,0.244,0.20914285714285713
37,1,1,0,10,23.362999999999982,18,105,87,15,94,93,23.42399999999998,4.086999999999997,1.4029999999999991,8.173999999999994,19,9,8,13,106,10,8,33,3,0.5,24,3.75,6,L,0.22098113207547168,0.40869999999999984,0.175375,0.24769696969696967
37,1,2,0,4,25.98599999999998,19,148,105,99,6,38,26.04699999999998,1.4029999999999991,3.720999999999997,2.439999999999998,20,8,9,10,149,8,19,15,2,0,15,3.75,6,L,0.17481208053691275,0.175375,0.1958421052631579,0.16266666666666665
37,2,3,0,5,30.194999999999975,17,158,16,47,39,21,78.14099999999993,0.183,0.122,0.7929999999999997,20,2,1,3,329,2,1,4,5,0,22,5.5,6,L,0.2375106382978723,0.0915,0.122,0.19824999999999998
37,2,4,0,2,13.602999999999989,10,54,49,59,52,1,14.700999999999988,0.427,3.0499999999999976,12.50499999999999,14,3,8,15,58,3,12,51,4,0.5,30,4.5,6,L,0.2534655172413793,0.14233333333333334,0.2541666666666666,0.2451960784313725
37,3,5,0,3,16.10399999999999,16,64,33,35,11,77,17.872999999999987,7.014999999999994,2.0739999999999985,16.10399999999999,20,14,8,15,71,23,9,56,5,0,19,4.75,6,L,0.25173239436619715,0.30499999999999994,0.23044444444444445,0.28757142857142853
37,3,6,0,10,14.273999999999988,20,74,14,90,86,44,19.763999999999985,0.5489999999999999,1.8909999999999987,0.9759999999999995,20,4,8,5,93,5,9,5,3,0,17,4.25,6,L,0.21251612903225806,0.1098,0.2101111111111111,0.19519999999999998
37,4,7,0,7,7.685999999999994,15,40,14,13,24,20,7.9299999999999935,3.9649999999999967,0.122,2.3789999999999982,17,13,1,8,43,22,1,8,6,1,72,6,6,L,0.18441860465116278,0.1802272727272727,0.122,0.29737499999999994
37,4,8,0,2,27.937999999999978,20,122,57,60,99,3,27.998999999999977,2.3179999999999983,11.284999999999991,2.1959999999999984,20,9,16,11,123,13,43,12,4,0,16,4,6,L,0.2276341463414634,0.17830769230769228,0.26244186046511625,0.183
37,5,9,0,7,26.41299999999998,19,109,16,23,30,68,26.47399999999998,7.8689999999999936,20.800999999999984,0.8539999999999996,20,15,16,5,110,38,81,5,6,0,21,5.25,6,L,0.24067272727272726,0.20707894736842103,0.25680246913580246,0.1708
37,5,10,0,2,29.462999999999976,19,151,51,4,56,45,34.952999999999975,0.366,2.1959999999999984,0.6099999999999999,20,2,7,4,170,2,8,4,4,0,19,4.75,6,L,0.20560588235294117,0.183,0.27449999999999997,0.1525
38,1,1,0,9,25.74199999999998,16,123,68,64,13,67,26.77899999999998,5.184999999999996,1.463999999999999,15.310999999999988,20,11,5,15,128,17,5,65,4,0.5,30,4.5,6,L,0.20921093749999997,0.30499999999999994,0.29279999999999995,0.23555384615384614
38,1,2,0,8,9.332999999999993,14,46,120,109,119,26,9.393999999999993,1.0369999999999995,1.8909999999999987,10.552999999999992,15,4,8,15,47,5,9,42,2,0.5,17,2.75,6,L,0.1998723404255319,0.2074,0.2101111111111111,0.25126190476190474
38,2,3,0,8,28.364999999999977,18,121,116,114,115,111,28.486999999999977,0.244,0.122,0.8539999999999996,19,2,2,4,122,2,2,4,2,1,24,2,6,L,0.23349999999999996,0.122,0.061,0.2135
38,2,4,0,3,8.905999999999993,18,52,34,35,26,30,10.064999999999992,0.9759999999999995,0.244,0.488,20,4,1,4,54,4,1,4,5,1,60,5,6,L,0.18638888888888888,0.244,0.244,0.122
38,3,5,0,4,29.523999999999976,14,143,100,37,103,107,30.682999999999975,0.488,1.0979999999999994,0.122,18,2,5,1,147,2,5,1,2,0.5,17,2.75,6,L,0.20872789115646256,0.244,0.21959999999999996,0.122
38,3,6,0,8,21.593999999999983,15,97,117,110,109,111,21.654999999999983,0.366,2.8669999999999978,0.488,16,3,6,3,98,3,10,3,2,1,24,2,6,L,0.22096938775510203,0.122,0.28669999999999995,0.16266666666666665
38,4,7,0,4,41.90699999999997,18,181,104,97,43,18,44.712999999999965,1.9519999999999986,3.1109999999999975,5.550999999999996,20,8,11,16,191,8,18,23,2,0,15,3.75,6,L,0.23409947643979054,0.244,0.17283333333333334,0.24134782608695649
38,4,8,0,6,24.52199999999998,19,123,5,12,9,36,24.58299999999998,5.245999999999996,4.513999999999997,0.7319999999999998,20,15,9,2,124,26,11,2,6,0.5,41,5.75,6,L,0.19824999999999998,0.20176923076923076,0.41036363636363626,0.366
38,5,9,0,2,27.14499999999998,17,140,13,55,53,74,88.87699999999992,0.061,0.183,0.122,20,1,2,1,393,1,2,1,4,0,17,4.25,6,L,0.22615012722646308,0.061,0.0915,0.122
38,5,10,0,6,19.153999999999986,19,88,2,7,64,9,24.64399999999998,0.244,0.6099999999999999,2.683999999999998,20,3,1,10,111,3,1,12,6,0.5,40,5.5,6,L,0.222018018018018,0.08133333333333333,0.6099999999999999,0.22366666666666665
39,1,1,0,4,12.01699999999999,17,56,103,107,105,82,12.07799999999999,3.842999999999997,6.099999999999995,5.428999999999996,18,12,15,13,57,16,26,20,2,0.5,15,2.25,6,L,0.21189473684210525,0.24018749999999997,0.23461538461538461,0.27144999999999997
39,1,2,0,8,18.421999999999986,19,94,113,110,111,35,18.482999999999986,1.2199999999999993,2.3179999999999983,0.183,20,3,9,1,95,4,11,1,2,0.5,17,2.75,6,L,0.1945578947368421,0.305,0.21072727272727274,0.183
39,2,3,0,1,21.837999999999983,18,107,73,72,27,78,23.42399999999998,14.212999999999989,0.366,1.2809999999999993,20,19,1,5,117,59,1,5,3,0,15,3.75,6,L,0.2002051282051282,0.24089830508474575,0.366,0.2562
39,2,4,0,10,19.336999999999986,18,100,90,44,85,93,21.715999999999983,0.244,4.269999999999997,1.463999999999999,20,1,12,8,110,1,24,8,3,0.5,23,3.5,6,L,0.1974181818181818,0.244,0.17791666666666664,0.183
39,3,5,0,3,25.19299999999998,19,112,26,25,27,21,27.632999999999978,1.585999999999999,2.622999999999998,10.247999999999992,20,5,9,15,121,7,11,36,5,0.5,36,5.25,6,L,0.22837190082644626,0.22657142857142856,0.23845454545454545,0.2846666666666666
39,3,6,0,6,21.044999999999984,15,93,7,1,11,8,25.98599999999998,2.1349999999999985,0.9759999999999995,0.122,20,10,5,2,115,10,5,2,6,1,72,6,6,L,0.22596521739130432,0.2135,0.19519999999999998,0.061
39,4,7,0,4,23.60699999999998,20,114,106,103,30,17,24.09499999999998,8.600999999999994,4.147999999999997,0.183,20,16,13,1,117,36,20,1,2,0,15,3.75,6,L,0.20594017094017092,0.23891666666666664,0.20739999999999997,0.183
39,4,8,0,6,24.76599999999998,16,123,5,7,40,46,30.194999999999975,0.6709999999999998,7.075999999999994,0.6099999999999999,20,2,13,3,148,2,27,3,6,0,22,5.5,6,L,0.20402027027027025,0.3355,0.26207407407407407,0.20333333333333334
39,5,9,0,7,16.652999999999988,18,72,14,21,79,55,16.713999999999988,11.83399999999999,9.454999999999993,2.9279999999999977,19,15,14,9,73,46,44,15,6,0,19,4.75,6,L,0.22895890410958902,0.2572608695652174,0.2148863636363636,0.19519999999999998
39,5,10,0,10,40.93099999999997,17,201,85,95,86,116,41.11399999999997,1.0369999999999995,3.0499999999999976,0.061,18,6,8,1,202,6,12,1,3,0.5,20,2.75,6,L,0.20353465346534652,0.17283333333333334,0.25416666666666665,0.061
40,1,1,0,7,29.767999999999976,15,136,20,68,71,16,30.438999999999975,1.0369999999999995,7.014999999999994,0.5489999999999999,18,1,17,3,141,2,37,3,6,0,20,5,6,L,0.21587943262411347,0.5184999999999998,0.1895945945945946,0.183
40,1,2,0,4,39.52799999999997,16,164,60,6,104,107,42.02899999999997,1.8299999999999987,2.2569999999999983,0.9149999999999996,20,7,10,5,169,8,15,5,2,0,14,3.5,6,L,0.24869230769230766,0.22875,0.15046666666666667,0.183
40,2,3,0,6,27.510999999999978,20,126,2,3,98,11,27.632999999999978,3.659999999999997,2.683999999999998,4.086999999999997,20,11,5,13,128,14,8,19,6,0.5,38,5,6,L,0.2158828125,0.2614285714285714,0.3354999999999999,0.21510526315789472
40,2,4,0,3,34.952999999999975,18,149,30,35,25,16,36.11199999999997,0.305,2.3179999999999983,1.1589999999999994,20,3,9,6,155,3,10,7,5,0.5,36,5.25,6,L,0.2329806451612903,0.10166666666666667,0.23179999999999998,0.16557142857142856
40,3,5,0,8,12.99299999999999,19,71,113,118,32,34,13.05399999999999,0.5489999999999999,13.41999999999999,0.061,20,3,17,1,72,3,57,1,2,0,14,3.5,6,L,0.18130555555555555,0.183,0.23543859649122806,0.061
40,3,6,0,6,17.445999999999987,11,70,5,9,3,8,17.506999999999987,7.990999999999993,8.051999999999994,1.463999999999999,12,16,15,5,71,30,27,6,6,1,72,6,6,L,0.24657746478873235,0.26636666666666664,0.29822222222222217,0.244
40,4,7,0,2,37.20999999999997,15,164,6,56,29,59,53.61899999999996,0.7319999999999998,0.6709999999999998,0.366,20,3,2,3,228,3,2,3,4,0,19,4.75,6,L,0.23517105263157892,0.244,0.3354999999999999,0.122
40,4,8,0,9,28.791999999999977,15,138,65,67,68,64,29.096999999999976,1.524999999999999,2.2569999999999983,2.3179999999999983,17,7,8,8,140,9,10,11,4,1,48,4,6,L,0.20783571428571426,0.16944444444444445,0.22569999999999998,0.21072727272727268
40,5,9,0,7,10.247999999999992,18,60,14,16,19,21,11.83399999999999,8.966999999999993,0.122,0.7929999999999997,20,15,2,4,68,36,2,4,6,1,72,6,6,L,0.17402941176470588,0.2490833333333333,0.061,0.19824999999999998
40,5,10,0,3,30.194999999999975,14,114,35,30,34,32,32.87899999999998,0.6099999999999999,0.6099999999999999,2.9279999999999977,20,2,5,10,124,2,6,15,5,1,60,5,6,L,0.26515322580645156,0.305,0.10166666666666667,0.19519999999999998
41,1,1,0,4,30.072999999999976,18,143,106,97,104,12,30.499999999999975,1.524999999999999,1.646999999999999,0.9149999999999996,20,5,5,1,145,6,6,2,2,0.5,18,3,6,L,0.21034482758620687,0.25416666666666665,0.27449999999999997,0.45749999999999985
41,1,2,0,5,26.35199999999998,19,118,44,47,46,72,29.157999999999976,2.2569999999999983,0.6709999999999998,0.305,20,7,7,3,128,7,7,3,5,0.5,34,4.75,6,L,0.22779687499999998,0.3224285714285714,0.09585714285714285,0.10166666666666667
41,2,3,0,10,29.523999999999976,19,132,90,49,32,21,30.804999999999975,7.075999999999994,1.0979999999999994,0.366,20,13,5,3,136,33,7,3,3,0,18,4.5,6,L,0.22650735294117644,0.2144242424242424,0.15685714285714283,0.122
41,2,4,0,5,37.81999999999997,19,154,47,44,42,48,38.00299999999997,1.3419999999999992,5.367999999999996,0.183,20,4,15,3,155,5,26,3,5,1,60,5,6,L,0.2451806451612903,0.26839999999999997,0.20646153846153845,0.061
41,3,5,0,9,17.079999999999988,18,83,71,5,8,66,17.140999999999988,9.698999999999993,1.3419999999999992,0.9759999999999995,19,14,8,5,84,33,10,6,4,0,20,5,6,L,0.2040595238095238,0.29390909090909084,0.13419999999999999,0.16266666666666665
41,3,6,0,3,22.996999999999982,19,105,25,28,58,20,23.85099999999998,0.244,2.805999999999998,2.744999999999998,20,2,9,12,112,2,12,15,5,0,20,5,6,L,0.21295535714285713,0.122,0.2338333333333333,0.183
41,4,7,0,1,22.325999999999983,20,105,78,77,18,83,22.386999999999983,1.0979999999999994,3.659999999999997,2.0129999999999986,20,6,12,8,106,6,17,10,3,0.5,24,3.75,6,L,0.21119811320754714,0.183,0.2152941176470588,0.2013
41,4,8,0,5,28.425999999999977,17,104,39,45,12,53,29.950999999999976,5.7949999999999955,8.783999999999994,1.646999999999999,20,14,14,6,111,24,38,7,5,0,20,5,6,L,0.2698288288288288,0.24145833333333333,0.2311578947368421,0.23528571428571426
41,5,9,0,6,29.279999999999976,14,128,1,9,10,6,29.340999999999976,0.5489999999999999,1.585999999999999,11.528999999999991,15,3,6,15,129,3,7,50,6,1,72,6,6,L,0.22744961240310074,0.183,0.2265714285714285,0.23057999999999998
41,5,10,0,7,16.957999999999988,18,88,20,15,21,14,17.018999999999988,4.391999999999997,3.598999999999997,8.112999999999994,19,14,11,14,89,19,13,37,6,1,72,6,6,L,0.19122471910112357,0.23115789473684206,0.2768461538461538,0.21927027027027024
42,1,1,0,2,34.037999999999975,13,143,60,58,17,54,34.403999999999975,0.122,0.9759999999999995,5.245999999999996,16,1,2,12,147,1,2,22,4,0.5,30,4.5,6,L,0.2340408163265306,0.122,0.4879999999999998,0.23845454545454545
42,1,2,0,8,42.02899999999997,20,181,114,117,46,63,44.041999999999966,0.305,7.9299999999999935,1.3419999999999992,20,2,15,5,190,2,36,6,2,0,13,3.25,6,L,0.23179999999999998,0.1525,0.22027777777777774,0.22366666666666665
42,2,3,0,5,21.593999999999983,20,111,39,3,41,7,26.29099999999998,12.93199999999999,15.249999999999988,1.3419999999999992,20,19,18,6,130,54,63,7,5,0,22,5.5,6,L,0.20223846153846153,0.23948148148148143,0.24206349206349204,0.1917142857142857
42,2,4,0,1,12.99299999999999,13,66,79,78,77,34,15.188999999999988,0.305,0.427,17.872999999999987,20,4,3,17,78,4,3,67,3,0.5,23,3.5,6,L,0.19473076923076924,0.07625,0.14233333333333334,0.2667611940298507
42,3,5,0,7,13.785999999999989,17,65,14,17,35,22,14.029999999999989,2.8669999999999978,1.7689999999999988,1.0369999999999995,19,6,6,3,67,10,6,3,6,0.5,41,5.75,6,L,0.20940298507462685,0.2866999999999999,0.29483333333333334,0.3456666666666667
42,3,6,0,6,20.007999999999985,18,87,7,9,2,6,21.105999999999984,1.463999999999999,3.537999999999997,0.244,20,7,11,2,94,7,12,2,6,1,72,6,6,L,0.224531914893617,0.20914285714285713,0.2948333333333333,0.122
42,4,7,0,6,11.467999999999991,18,55,11,5,2,28,12.01699999999999,1.524999999999999,0.244,19.458999999999985,19,6,2,15,56,6,2,76,6,0.5,41,5.75,6,L,0.2145892857142857,0.25416666666666665,0.122,0.2560394736842105
42,4,8,0,5,69.23500000000055,16,297,116,59,76,18,83.57000000000055,0.305,0.5489999999999999,9.027999999999993,20,3,3,17,357,3,3,53,5,0,15,3.75,6,L,0.2340896358543417,0.10166666666666667,0.183,0.17033962264150943
42,5,9,0,1,20.312999999999985,16,100,84,28,83,34,40.62599999999997,7.9299999999999935,0.488,0.183,20,17,2,1,176,28,2,1,3,0,16,4,6,L,0.23082954545454543,0.2832142857142857,0.244,0.183
42,5,10,0,2,39.10099999999997,12,183,49,9,44,1,39.46699999999997,9.576999999999993,5.306999999999996,21.593999999999983,15,15,14,17,186,32,26,76,4,0,21,5.25,6,L,0.21218817204301074,0.29928124999999994,0.20411538461538462,0.2841315789473684
43,1,1,0,8,12.62699999999999,18,65,119,120,92,113,16.04299999999999,3.2329999999999974,5.184999999999996,0.244,20,10,13,2,76,14,28,2,2,0.5,15,2.25,6,L,0.21109210526315786,0.23092857142857143,0.18517857142857141,0.122
43,1,2,0,4,16.16499999999999,18,88,107,102,105,104,16.34799999999999,0.6099999999999999,0.8539999999999996,0.244,19,3,4,3,89,4,4,3,2,1,24,2,6,L,0.18368539325842695,0.1525,0.2135,0.08133333333333333
43,2,3,0,1,10.369999999999992,17,56,80,84,83,1,10.674999999999992,1.585999999999999,1.646999999999999,15.859999999999987,19,5,5,16,58,5,6,72,3,0.5,24,3.75,6,L,0.18405172413793103,0.3172,0.27449999999999997,0.22027777777777777
43,2,4,0,7,22.386999999999983,19,121,17,20,94,57,22.447999999999983,2.1349999999999985,9.271999999999993,7.8689999999999936,20,6,12,16,122,6,31,33,6,0,19,4.75,6,L,0.184,0.3558333333333332,0.29909677419354835,0.23845454545454545
43,3,5,0,8,16.10399999999999,17,86,113,112,66,18,16.16499999999999,2.0129999999999986,9.942999999999993,5.245999999999996,18,7,15,13,87,9,38,28,2,0,14,3.5,6,L,0.1858045977011494,0.22366666666666665,0.2616578947368421,0.18735714285714286
43,3,6,0,5,15.432999999999987,19,78,39,45,42,49,18.665999999999986,3.659999999999997,3.0499999999999976,9.942999999999993,20,9,13,16,99,13,16,48,5,0.5,34,4.75,6,L,0.18854545454545454,0.2815384615384615,0.190625,0.2071458333333333
43,4,7,0,6,26.10799999999998,20,118,12,10,2,11,28.425999999999977,2.439999999999998,6.160999999999995,2.500999999999998,20,9,14,10,128,13,28,11,6,1,72,6,6,L,0.222078125,0.18769230769230769,0.22003571428571425,0.22736363636363635
43,4,8,0,2,18.543999999999986,19,86,56,50,18,52,20.495999999999984,0.5489999999999999,2.561999999999998,0.427,20,3,4,2,95,3,6,2,4,0.5,30,4.5,6,L,0.2157473684210526,0.183,0.42699999999999994,0.2135
43,5,9,0,1,45.627999999999965,9,170,76,74,77,10,49.65399999999996,0.427,1.0979999999999994,9.454999999999993,20,5,5,16,188,5,5,31,3,0.5,24,3.75,6,L,0.2641170212765957,0.0854,0.2196,0.30499999999999994
43,5,10,0,3,74.35900000000115,11,296,28,34,85,21,75.09100000000115,2.1349999999999985,0.427,6.404999999999995,17,9,3,12,302,10,3,23,5,0,19,4.75,6,L,0.2486456953642384,0.2135,0.14233333333333334,0.2784782608695652
44,1,1,0,1,23.240999999999982,17,94,79,78,83,81,23.72899999999998,1.7079999999999989,2.1959999999999984,1.463999999999999,20,8,11,6,98,10,14,6,3,1,36,3,5,L,0.24213265306122447,0.17079999999999998,0.15685714285714286,0.24399999999999997
44,1,2,0,5,32.81799999999998,17,137,37,39,117,14,34.098999999999975,1.2809999999999993,4.635999999999997,4.208999999999997,20,7,13,11,141,8,20,13,5,0,18,4.5,5,L,0.24183687943262408,0.160125,0.23179999999999995,0.3237692307692307
44,2,3,0,8,46.298999999999964,19,195,120,119,69,19,48.37299999999996,5.001999999999996,5.489999999999996,0.7929999999999997,20,15,14,2,204,23,21,2,2,0,14,3.5,5,L,0.2371225490196078,0.21747826086956518,0.2614285714285714,0.39649999999999985
44,2,4,0,2,20.495999999999984,17,85,53,4,57,60,24.03399999999998,7.685999999999994,15.249999999999988,3.0499999999999976,20,15,18,11,103,40,66,12,4,0.5,30,4.5,5,L,0.2333398058252427,0.19215,0.23106060606060602,0.25416666666666665
44,3,5,0,5,42.51699999999997,10,174,43,41,44,54,46.420999999999964,0.122,3.781999999999997,1.2199999999999993,20,1,12,5,187,1,19,5,5,0.5,34,4.75,5,L,0.24824064171122992,0.122,0.19905263157894734,0.244
44,3,6,0,4,14.517999999999988,19,77,101,108,102,72,16.04299999999999,1.1589999999999994,1.0979999999999994,8.844999999999994,20,4,4,17,84,5,5,48,2,0.5,16,2.5,5,L,0.19098809523809523,0.2318,0.2196,0.18427083333333333
44,4,7,0,2,69.35700000000057,12,296,58,35,17,55,73.01700000000056,1.463999999999999,0.122,2.744999999999998,20,7,2,9,308,7,2,16,4,0,19,4.75,5,L,0.2370681818181818,0.20914285714285713,0.061,0.1715625
44,4,8,0,10,15.737999999999987,18,94,96,94,1,9,17.140999999999988,5.611999999999996,14.578999999999988,15.066999999999988,20,13,17,16,100,26,66,64,3,0,18,4.5,5,L,0.17141,0.21584615384615383,0.22089393939393936,0.23542187499999997
45,1,1,0,3,28.059999999999977,16,130,93,1,94,4,52.64299999999996,8.783999999999994,1.2809999999999993,2.1959999999999984,20,19,4,12,226,45,5,15,5,0,18,4.5,6,L,0.23293362831858405,0.19519999999999998,0.2562,0.1464
45,1,2,0,7,30.560999999999975,19,126,22,21,16,24,31.597999999999974,6.526999999999995,0.7929999999999997,0.305,20,15,4,2,131,34,4,2,6,1,72,6,6,L,0.24120610687022898,0.1919705882352941,0.19824999999999998,0.1525
45,2,3,0,9,24.33899999999998,18,107,68,70,62,64,26.22999999999998,0.244,1.1589999999999994,5.489999999999996,20,2,6,13,118,2,7,21,4,1,48,4,6,L,0.22228813559322033,0.122,0.16557142857142856,0.2614285714285714
45,2,4,0,7,22.386999999999983,19,102,22,23,17,41,22.447999999999983,3.476999999999997,5.916999999999995,8.722999999999994,20,9,14,16,103,14,22,39,6,0.5,41,5.75,6,L,0.2179417475728155,0.24835714285714283,0.26895454545454545,0.22366666666666665
45,3,5,0,4,39.16199999999997,18,181,99,17,97,18,39.77199999999997,5.062999999999996,0.9759999999999995,1.7079999999999989,20,14,4,3,184,21,5,3,2,0,16,4,6,L,0.21615217391304345,0.24109523809523808,0.19519999999999998,0.5693333333333331
45,3,6,0,6,22.081999999999983,20,98,6,1,8,12,22.325999999999983,8.966999999999993,6.038999999999995,0.9149999999999996,20,18,16,6,100,42,23,6,6,1,72,6,6,L,0.22326,0.21349999999999997,0.26256521739130434,0.1525
45,4,7,0,2,12.19999999999999,19,61,60,94,89,92,13.846999999999989,19.702999999999985,8.539999999999994,2.9279999999999977,20,17,14,10,73,62,34,12,4,0.5,22,3.25,6,L,0.1896849315068493,0.3177903225806451,0.2511764705882353,0.244
45,4,8,0,8,13.724999999999989,20,69,113,120,117,115,15.005999999999988,1.463999999999999,1.1589999999999994,1.7079999999999989,20,3,6,4,75,3,7,4,2,1,24,2,6,L,0.20007999999999998,0.4879999999999999,0.16557142857142856,0.42699999999999994
45,5,9,0,8,16.469999999999988,20,87,113,115,52,116,16.774999999999988,1.4029999999999991,13.17599999999999,0.6709999999999998,20,5,15,3,89,6,48,4,2,0.5,16,2.5,6,L,0.18848314606741573,0.23383333333333328,0.27449999999999997,0.16775
45,5,10,0,4,19.031999999999986,19,88,105,70,23,13,19.336999999999986,12.56599999999999,0.305,4.269999999999997,20,19,3,8,91,55,3,10,2,0,18,4.5,6,L,0.21249450549450546,0.22847272727272724,0.10166666666666667,0.42699999999999994
46,1,1,0,3,27.14499999999998,20,126,26,34,27,30,31.841999999999974,0.122,1.524999999999999,2.500999999999998,20,1,5,10,145,1,6,13,5,1,60,5,6,L,0.2196,0.122,0.25416666666666665,0.19238461538461538
46,1,2,0,5,29.035999999999976,17,117,47,40,39,9,30.072999999999976,5.367999999999996,1.1589999999999994,5.123999999999996,20,14,8,13,124,28,10,21,5,0.5,36,5.25,6,L,0.24252419354838706,0.1917142857142857,0.1159,0.24399999999999997
46,2,3,0,10,47.82399999999996,16,223,86,87,89,16,50.01999999999996,1.0979999999999994,0.366,1.585999999999999,20,4,4,6,233,5,4,6,3,0.5,24,3.75,6,L,0.2146781115879828,0.2196,0.0915,0.2643333333333333
46,2,4,0,6,30.255999999999975,18,140,12,11,75,49,30.865999999999975,8.295999999999994,0.6709999999999998,6.953999999999994,20,14,2,15,142,37,2,34,6,0,19,4.75,6,L,0.21736619718309858,0.22421621621621618,0.33549999999999996,0.20452941176470588
46,3,5,0,6,18.909999999999986,18,87,4,5,7,38,18.970999999999986,0.9149999999999996,15.554999999999987,2.3789999999999982,19,4,17,9,88,4,68,12,6,0.5,41,5.75,6,L,0.21557954545454544,0.22875,0.22874999999999998,0.19824999999999998
46,3,6,0,7,20.739999999999984,17,83,15,17,20,60,20.800999999999984,1.8909999999999987,5.977999999999995,3.9649999999999967,18,6,14,10,84,8,25,16,6,0.5,40,5.5,6,L,0.24763095238095237,0.23637499999999997,0.23911999999999997,0.24781249999999996
46,4,7,0,10,25.92499999999998,15,109,93,96,4,92,28.242999999999977,1.8909999999999987,6.648999999999995,2.0129999999999986,20,4,11,8,117,5,24,8,3,0.5,24,3.75,6,L,0.24139316239316239,0.3781999999999999,0.27704166666666663,0.251625
46,4,8,0,7,17.323999999999987,18,76,14,22,18,16,18.970999999999986,0.244,1.0369999999999995,0.366,20,2,5,2,83,2,6,2,6,1,72,6,6,L,0.22856626506024094,0.122,0.17283333333333334,0.183
46,5,9,0,10,23.240999999999982,20,106,87,44,89,88,25.49799999999998,1.463999999999999,4.391999999999997,4.147999999999997,20,6,13,11,117,7,18,18,3,0.5,23,3.5,6,L,0.2179316239316239,0.20914285714285713,0.244,0.23044444444444442
46,5,10,0,7,12.26099999999999,17,57,21,22,23,24,14.090999999999989,0.305,2.0129999999999986,1.2809999999999993,20,2,9,6,67,2,11,8,6,1,72,6,6,L,0.21031343283582088,0.1525,0.183,0.160125
47,1,1,0,3,42.76099999999997,16,189,32,19,29,35,45.383999999999965,3.4159999999999973,2.561999999999998,1.4029999999999991,20,11,8,4,198,15,14,4,5,0.5,36,5.25,6,L,0.2292121212121212,0.2277333333333333,0.183,0.35074999999999995
47,1,2,0,9,34.159999999999975,18,154,71,66,63,62,34.769999999999975,0.9759999999999995,0.7319999999999998,1.0369999999999995,20,4,5,3,158,4,5,3,4,1,48,4,6,L,0.2200632911392405,0.244,0.1464,0.3456666666666666
47,2,3,0,10,18.726999999999986,17,88,14,91,88,94,35.989999999999974,0.244,0.305,0.061,20,2,4,1,162,2,4,1,3,0.5,24,3.75,6,L,0.22216049382716047,0.122,0.07625,0.061
47,2,4,0,6,18.787999999999986,19,79,3,7,11,34,20.861999999999984,2.439999999999998,4.086999999999997,4.574999999999997,20,9,13,12,88,12,20,21,6,0.5,41,5.75,6,L,0.2370681818181818,0.20333333333333334,0.20434999999999998,0.21785714285714283
47,3,5,0,8,14.334999999999988,18,80,110,16,17,31,15.615999999999987,17.018999999999988,10.003999999999992,0.061,20,18,16,1,88,78,39,1,2,0,19,4.75,6,L,0.17745454545454545,0.21819230769230766,0.2565128205128205,0.061
47,3,6,0,5,16.04299999999999,19,70,41,43,101,74,22.508999999999983,0.6099999999999999,18.177999999999987,4.391999999999997,20,3,16,12,90,3,75,16,5,0,15,3.75,6,L,0.2501,0.20333333333333334,0.24237333333333333,0.27449999999999997
47,4,7,0,3,13.907999999999989,18,81,35,74,114,111,23.97299999999998,23.42399999999998,16.591999999999988,0.9759999999999995,20,18,18,6,123,86,71,6,5,0,12,3,6,L,0.19490243902439022,0.27237209302325577,0.2336901408450704,0.16266666666666665
47,4,8,0,9,15.188999999999988,18,67,14,63,72,37,34.891999999999975,0.061,0.7319999999999998,0.244,20,1,6,1,147,1,6,1,4,0,19,4.75,6,L,0.23736054421768704,0.061,0.122,0.244
47,5,9,0,5,10.735999999999992,20,62,37,4,38,79,12.19999999999999,29.035999999999976,0.305,1.2199999999999993,20,19,2,5,71,111,2,5,5,0,19,4.75,6,L,0.17183098591549295,0.26158558558558553,0.1525,0.244
47,5,10,0,7,23.85099999999998,18,106,16,22,58,55,24.64399999999998,0.183,4.7579999999999965,1.2809999999999993,20,2,11,6,113,2,19,6,6,0,20,5,6,L,0.21808849557522123,0.0915,0.2504210526315789,0.2135
48,1,1,0,1,14.029999999999989,16,70,76,84,83,28,15.249999999999988,0.366,0.366,2.500999999999998,20,2,1,7,75,2,1,10,3,0.5,23,3.5,6,L,0.2033333333333333,0.183,0.366,0.2501
48,1,2,0,5,23.60699999999998,19,94,55,92,59,53,32.69599999999998,10.735999999999992,6.587999999999995,0.183,20,16,18,2,129,40,31,2,5,0.5,27,3.75,6,L,0.25345736434108523,0.26839999999999997,0.21251612903225806,0.0915
48,2,3,0,10,44.956999999999965,15,191,96,94,95,16,48.06799999999996,4.025999999999997,2.622999999999998,1.7689999999999988,20,15,11,6,208,23,13,6,3,0.5,24,3.75,6,L,0.2310961538461538,0.17504347826086955,0.20176923076923076,0.2948333333333333
48,2,4,0,2,24.15599999999998,17,108,54,31,74,53,25.19299999999998,12.56599999999999,0.6709999999999998,2.0739999999999985,20,17,1,11,112,49,1,13,4,0,16,4,6,L,0.22493749999999998,0.2564489795918367,0.6709999999999998,0.15953846153846155
